User,Trial,House,Condition,Phase,RentalPrice,Recommendation,Answer,AnswerMin,AnswerMax,StartTime,SaveTime,EndTime,Duration,"Reaction Time","Subjective Surprise",Confidence,Expectations,Trust,"Trust Save Time","Yes Time","No time",Change,"Second Estimation","Second Estimation Time","Final Estimation",Stars,"Weight of Advice"
0,0,41,3,1,817,805,0,0,0,1657552624,0,1657552644,20,0,0,0,0,0,0,0,0,0,0,0,0,0,0
0,1,8,3,1,720,745,0,0,0,1657552644,0,1657552655,11,0,0,0,0,0,0,0,0,0,0,0,0,0,0
0,2,163,3,1,450,410,0,0,0,1657552655,0,1657552686,31,0,0,0,0,0,0,0,0,0,0,0,0,0,0
0,3,3,3,1,640,650,0,0,0,1657552686,0,1657552696,10,0,0,0,0,0,0,0,0,0,0,0,0,0,0
0,4,170,3,1,460,465,0,0,0,1657552696,0,1657552706,10,0,0,0,0,0,0,0,0,0,0,0,0,0,0
0,5,147,3,1,420,430,0,0,0,1657552706,0,1657552716,10,0,0,0,0,0,0,0,0,0,0,0,0,0,0
0,6,139,3,1,490,455,0,0,0,1657552716,0,1657552726,10,0,0,0,0,0,0,0,0,0,0,0,0,0,0
0,7,19,3,1,400,375,0,0,0,1657552726,0,1657552733,7,0,0,0,0,0,0,0,0,0,0,0,0,0,0
0,8,192,3,1,950,910,0,0,0,1657552733,0,1657552744,11,0,0,0,0,0,0,0,0,0,0,0,0,0,0
0,9,106,3,1,457,495,0,0,0,1657552744,0,1657552751,7,0,0,0,0,0,0,0,0,0,0,0,0,0,0
0,10,10,3,1,700,660,0,0,0,1657552751,0,1657552767,16,0,0,0,0,0,0,0,0,0,0,0,0,0,0
0,11,152,3,1,515,590,0,0,0,1657552767,0,1657552783,16,0,0,0,0,0,0,0,0,0,0,0,0,0,0
0,12,98,3,1,790,910,0,0,0,1657552784,0,1657552790,6,0,0,0,0,0,0,0,0,0,0,0,0,0,0
0,13,45,3,1,870,870,0,0,0,1657552790,0,1657552798,8,0,0,0,0,0,0,0,0,0,0,0,0,0,0
0,14,64,3,1,930,1030,0,0,0,1657552798,0,1657552806,8,0,0,0,0,0,0,0,0,0,0,0,0,0,0
0,15,86,3,1,850,875,0,0,0,1657552806,0,1657552817,11,0,0,0,0,0,0,0,0,0,0,0,0,0,0
0,16,58,3,1,490,530,0,0,0,1657552817,0,1657552822,5,0,0,0,0,0,0,0,0,0,0,0,0,0,0
0,17,137,3,1,659,570,0,0,0,1657552822,0,1657552842,20,0,0,0,0,0,0,0,0,0,0,0,0,0,0
0,18,157,3,1,585,540,0,0,0,1657552842,0,1657552849,7,0,0,0,0,0,0,0,0,0,0,0,0,0,0
0,19,175,3,1,500,505,0,0,0,1657552849,0,1657552854,5,0,0,0,0,0,0,0,0,0,0,0,0,0,0
0,20,44,3,1,750,745,0,0,0,1657552854,0,1657552864,10,0,0,0,0,0,0,0,0,0,0,0,0,0,0
0,21,120,3,1,522,490,0,0,0,1657552864,0,1657552872,8,0,0,0,0,0,0,0,0,0,0,0,0,0,0
0,22,75,3,1,994,1010,0,0,0,1657552872,0,1657552884,12,0,0,0,0,0,0,0,0,0,0,0,0,0,0
0,23,4,3,1,950,1060,0,0,0,1657552884,0,1657552894,10,0,0,0,0,0,0,0,0,0,0,0,0,0,0
0,24,122,3,1,725,725,0,0,0,1657552894,0,1657552899,5,0,0,0,0,0,0,0,0,0,0,0,0,0,0
0,25,181,3,1,789,720,0,0,0,1657552899,0,1657552909,10,0,0,0,0,0,0,0,0,0,0,0,0,0,0
0,26,119,3,1,750,720,0,0,0,1657552909,0,1657552936,27,0,0,0,0,0,0,0,0,0,0,0,0,0,0
0,27,105,3,1,716,715,0,0,0,1657552936,0,1657552940,4,0,0,0,0,0,0,0,0,0,0,0,0,0,0
0,28,196,3,1,650,675,0,0,0,1657552940,0,1657552946,6,0,0,0,0,0,0,0,0,0,0,0,0,0,0
0,29,32,3,1,895,1005,0,0,0,1657552946,0,1657552951,5,0,0,0,0,0,0,0,0,0,0,0,0,0,0
0,0,155,3,2,450,435,0,420,475,1657552958,1657553018,1657553019,61,1,0,0,0,0,0,0,0,0,0,0,0,0,0
0,1,167,3,2,580,540,0,475,525,1657553019,1657553037,1657553037,18,0,0,0,0,0,0,0,0,0,0,0,0,0,0
0,2,197,3,2,635,555,0,450,500,1657553037,1657553062,1657553063,26,1,0,0,0,0,0,0,0,0,0,0,0,0,0
0,3,28,3,2,846,980,0,725,775,1657553063,1657553081,1657553082,19,1,0,0,0,0,0,0,0,0,0,0,0,0,0
0,4,100,3,2,895,895,0,775,825,1657553082,1657553092,1657553092,10,0,0,0,0,0,0,0,0,0,0,0,0,0,0
0,5,110,3,2,758,755,0,650,700,1657553093,1657553104,1657553105,12,1,0,0,0,0,0,0,0,0,0,0,0,0,0
0,6,36,3,2,790,755,0,625,675,1657553105,1657553113,1657553113,8,0,0,0,0,0,0,0,0,0,0,0,0,0,0
0,7,107,3,2,790,755,0,700,750,1657553113,1657553127,1657553128,15,1,0,0,0,0,0,0,0,0,0,0,0,0,0
0,8,124,3,2,430,505,0,500,550,1657553128,1657553135,1657553135,7,0,0,0,0,0,0,0,0,0,0,0,0,0,0
0,9,65,3,2,450,450,0,475,525,1657553135,1657553142,1657553143,8,1,0,0,0,0,0,0,0,0,0,0,0,0,0
0,0,114,3,3,1340,1090,925,0,0,1657553149,1657553176,1657553294,145,118,5,4,44.864864864865,0,0,1657553287,0,true,975,1657553293,975,2,0.3030303030303
0,1,36,3,3,790,755,825,0,0,1657553294,1657553336,1657553345,51,9,4,5,4.2424242424242,0,1657553319,1657553287,1657553344,false,975,1657553293,825,4,0
0,2,187,3,3,1550,1295,1350,0,0,1657553345,1657553384,1657553393,48,9,4,3,14.814814814815,4,1657553366,1657553287,1657553392,false,975,1657553293,1350,4,0
0,3,195,3,3,1815,1260,1950,0,0,1657553393,1657553436,1657553453,60,17,7,3,6.9230769230769,4,1657553403,1657553448,1657553392,true,1850,1657553452,1850,5,0.14492753623188
0,4,117,3,3,560,670,625,0,0,1657553453,1657553494,1657553502,49,8,4,5,10.4,4,1657553474,1657553498,1657553392,true,650,1657553501,650,3,0.55555555555556
0,5,107,3,3,790,755,600,0,0,1657553502,1657553599,1657553613,111,14,6,4,31.666666666667,4,1657553514,1657553609,1657553392,true,650,1657553612,650,3,0.32258064516129
0,6,40,3,3,1950,1080,1375,0,0,1657553614,1657553636,1657553644,30,8,5,5,41.818181818182,4,1657553622,1657553609,1657553643,false,650,1657553612,1375,2,0
0,7,130,3,3,875,980,1350,0,0,1657553644,1657553680,1657553689,45,9,6,4,35.185185185185,3,1657553660,1657553609,1657553688,false,650,1657553612,1350,1,0
0,8,5,3,3,791,595,625,0,0,1657553689,1657553729,1657553794,105,65,4,4,26.56,3,1657553717,1657553792,1657553793,false,650,1657553612,625,3,0
0,9,176,3,3,390,390,475,0,0,1657553794,1657553844,1657553854,60,10,5,6,17.894736842105,3,1657553834,1657553853,1657553854,false,650,1657553612,475,3,0
0,10,104,3,3,670,745,675,0,0,1657553855,1657553875,1657553885,30,10,5,5,0.74074074074074,3,1657553861,1657553881,1657553854,true,725,1657553884,725,4,0.71428571428571
0,11,29,3,3,1415,1240,1575,0,0,1657553885,1657553910,1657553917,32,7,6,5,10.15873015873,3,1657553898,1657553881,1657553917,false,725,1657553884,1575,4,0
0,12,164,3,3,1150,1180,1850,0,0,1657553917,1657553942,1657553949,32,7,7,5,37.837837837838,3,1657553926,1657553881,1657553948,false,725,1657553884,1850,1,0
0,13,72,3,3,806,750,775,0,0,1657553949,1657553973,1657553977,28,4,4,6,4,3,1657553958,1657553881,1657553976,false,725,1657553884,775,4,0
0,14,136,3,3,690,790,650,0,0,1657553977,1657554000,1657554010,33,10,5,5,6.1538461538462,3,1657553980,1657554005,1657553976,true,675,1657554009,675,5,0.17857142857143
0,15,84,3,3,1385,910,925,0,0,1657554010,1657554045,1657554049,39,4,4,5,49.72972972973,3,1657554016,1657554005,1657554048,false,675,1657554009,925,2,0
0,16,60,3,3,870,855,850,0,0,1657554049,1657554062,1657554077,28,15,4,5,2.3529411764706,3,1657554052,1657554070,1657554048,true,900,1657554076,900,4,10
0,17,156,3,3,430,400,525,0,0,1657554077,1657554123,1657554133,56,10,6,5,18.095238095238,2,1657554085,1657554129,1657554128,true,500,1657554132,500,3,0.2
0,18,62,3,3,474,480,525,0,0,1657554133,1657554170,1657554223,90,53,3,5,9.7142857142857,2,1657554138,1657554129,1657554222,false,500,1657554132,525,4,0
0,19,56,3,3,405,460,525,0,0,1657554223,1657554242,1657554262,39,20,3,6,22.857142857143,2,1657554226,1657554129,1657554262,false,500,1657554132,525,2,0
0,20,129,3,3,605,755,725,0,0,1657554263,1657554280,1657554286,23,6,2,5,16.551724137931,2,1657554265,1657554129,1657554285,false,500,1657554132,725,3,0
0,21,110,3,3,758,755,750,0,0,1657554286,1657554367,1657554371,85,4,1,5,1.0666666666667,2,1657554289,1657554129,1657554370,false,500,1657554132,750,5,0
0,22,146,3,3,1300,1175,1425,0,0,1657554371,1657554389,1657554400,29,11,6,5,8.7719298245614,3,1657554378,1657554398,1657554400,false,500,1657554132,1425,4,0
0,23,113,3,3,750,790,925,0,0,1657554401,1657554425,1657554430,29,5,6,6,18.918918918919,3,1657554405,1657554398,1657554429,false,500,1657554132,925,3,0
0,24,144,3,3,329,400,475,0,0,1657554430,1657554450,1657554462,32,12,4,3,30.736842105263,3,1657554433,1657554458,1657554429,true,450,1657554461,450,2,0.33333333333333
0,25,34,3,3,457,515,525,0,0,1657554462,1657554484,1657554489,27,5,1,5,12.952380952381,3,1657554468,1657554458,1657554488,false,450,1657554461,525,3,0
0,26,33,3,3,980,890,775,0,0,1657554489,1657554504,1657554515,26,11,5,4,26.451612903226,3,1657554491,1657554509,1657554488,true,800,1657554514,800,3,0.21739130434783
0,27,115,3,3,405,460,450,0,0,1657554515,1657554538,1657554545,30,7,1,4,10,3,1657554525,1657554509,1657554544,false,800,1657554514,450,4,0
0,28,63,3,3,1300,1175,1350,0,0,1657554545,1657554567,1657554575,30,8,5,3,3.7037037037037,3,1657554549,1657554509,1657554574,false,800,1657554514,1350,4,0
0,29,167,3,3,580,540,550,0,0,1657554575,1657554591,1657554595,20,4,1,4,5.4545454545455,3,1657554582,1657554509,1657554595,false,800,1657554514,550,4,0
1,0,105,3,1,716,715,0,0,0,1657563627,0,1657563685,58,0,0,0,0,0,0,0,0,0,0,0,0,0,0
1,1,41,3,1,817,805,0,0,0,1657563685,0,1657563708,23,0,0,0,0,0,0,0,0,0,0,0,0,0,0
1,2,175,3,1,500,505,0,0,0,1657563708,0,1657563732,24,0,0,0,0,0,0,0,0,0,0,0,0,0,0
1,3,75,3,1,994,1010,0,0,0,1657563732,0,1657563763,31,0,0,0,0,0,0,0,0,0,0,0,0,0,0
1,4,163,3,1,450,410,0,0,0,1657563763,0,1657563823,60,0,0,0,0,0,0,0,0,0,0,0,0,0,0
1,5,58,3,1,490,530,0,0,0,1657563823,0,1657563869,46,0,0,0,0,0,0,0,0,0,0,0,0,0,0
1,6,196,3,1,650,675,0,0,0,1657563869,0,1657563903,34,0,0,0,0,0,0,0,0,0,0,0,0,0,0
1,7,137,3,1,659,570,0,0,0,1657563903,0,1657563921,18,0,0,0,0,0,0,0,0,0,0,0,0,0,0
1,8,10,3,1,700,660,0,0,0,1657563921,0,1657563942,21,0,0,0,0,0,0,0,0,0,0,0,0,0,0
1,9,64,3,1,930,1030,0,0,0,1657563942,0,1657563960,18,0,0,0,0,0,0,0,0,0,0,0,0,0,0
1,10,45,3,1,870,870,0,0,0,1657563960,0,1657563978,18,0,0,0,0,0,0,0,0,0,0,0,0,0,0
1,11,32,3,1,895,1005,0,0,0,1657563978,0,1657563991,13,0,0,0,0,0,0,0,0,0,0,0,0,0,0
1,12,106,3,1,457,495,0,0,0,1657563991,0,1657564006,15,0,0,0,0,0,0,0,0,0,0,0,0,0,0
1,13,44,3,1,750,745,0,0,0,1657564006,0,1657564039,33,0,0,0,0,0,0,0,0,0,0,0,0,0,0
1,14,119,3,1,750,720,0,0,0,1657564039,0,1657564054,15,0,0,0,0,0,0,0,0,0,0,0,0,0,0
1,15,19,3,1,400,375,0,0,0,1657564054,0,1657564067,13,0,0,0,0,0,0,0,0,0,0,0,0,0,0
1,16,4,3,1,950,1060,0,0,0,1657564067,0,1657564077,10,0,0,0,0,0,0,0,0,0,0,0,0,0,0
1,17,98,3,1,790,910,0,0,0,1657564077,0,1657564087,10,0,0,0,0,0,0,0,0,0,0,0,0,0,0
1,18,86,3,1,850,875,0,0,0,1657564087,0,1657564100,13,0,0,0,0,0,0,0,0,0,0,0,0,0,0
1,19,192,3,1,950,910,0,0,0,1657564100,0,1657564127,27,0,0,0,0,0,0,0,0,0,0,0,0,0,0
1,20,152,3,1,515,590,0,0,0,1657564128,0,1657564139,11,0,0,0,0,0,0,0,0,0,0,0,0,0,0
1,21,147,3,1,420,430,0,0,0,1657564140,0,1657564152,12,0,0,0,0,0,0,0,0,0,0,0,0,0,0
1,22,170,3,1,460,465,0,0,0,1657564152,0,1657564161,9,0,0,0,0,0,0,0,0,0,0,0,0,0,0
1,23,181,3,1,789,720,0,0,0,1657564161,0,1657564179,18,0,0,0,0,0,0,0,0,0,0,0,0,0,0
1,24,139,3,1,490,455,0,0,0,1657564179,0,1657564205,26,0,0,0,0,0,0,0,0,0,0,0,0,0,0
1,25,3,3,1,640,650,0,0,0,1657564205,0,1657564230,25,0,0,0,0,0,0,0,0,0,0,0,0,0,0
1,26,120,3,1,522,490,0,0,0,1657564230,0,1657564249,19,0,0,0,0,0,0,0,0,0,0,0,0,0,0
1,27,157,3,1,585,540,0,0,0,1657564249,0,1657564258,9,0,0,0,0,0,0,0,0,0,0,0,0,0,0
1,28,122,3,1,725,725,0,0,0,1657564258,0,1657564272,14,0,0,0,0,0,0,0,0,0,0,0,0,0,0
1,29,8,3,1,720,745,0,0,0,1657564272,0,1657564304,32,0,0,0,0,0,0,0,0,0,0,0,0,0,0
1,0,167,3,2,580,540,0,550,650,1657564344,1657564388,1657564390,46,2,0,0,0,0,0,0,0,0,0,0,0,0,0
1,1,100,3,2,895,895,0,800,950,1657564390,1657564445,1657564447,57,2,0,0,0,0,0,0,0,0,0,0,0,0,0
1,2,110,3,2,758,755,0,540,600,1657564448,1657564497,1657564498,50,1,0,0,0,0,0,0,0,0,0,0,0,0,0
1,3,65,3,2,450,450,0,480,520,1657564498,1657564530,1657564531,33,1,0,0,0,0,0,0,0,0,0,0,0,0,0
1,4,155,3,2,450,435,0,420,480,1657564531,1657564587,1657564588,57,1,0,0,0,0,0,0,0,0,0,0,0,0,0
1,5,197,3,2,635,555,0,560,720,1657564588,1657564638,1657564640,52,2,0,0,0,0,0,0,0,0,0,0,0,0,0
1,6,107,3,2,790,755,0,620,720,1657564640,1657564670,1657564671,31,1,0,0,0,0,0,0,0,0,0,0,0,0,0
1,7,28,3,2,846,980,0,720,820,1657564671,1657564690,1657564691,20,1,0,0,0,0,0,0,0,0,0,0,0,0,0
1,8,124,3,2,430,505,0,510,620,1657564691,1657564718,1657564719,28,1,0,0,0,0,0,0,0,0,0,0,0,0,0
1,9,36,3,2,790,755,0,560,730,1657564719,1657564760,1657564761,42,1,0,0,0,0,0,0,0,0,0,0,0,0,0
1,0,33,3,3,980,890,780,0,0,1657564876,1657564912,1657564982,106,70,3,6,25.641025641026,0,0,0,1657564980,false,-1,0,780,3,0
1,1,40,3,3,1950,1080,1100,0,0,1657564982,1657565041,1657565053,71,12,1,6,77.272727272727,0,1657564998,0,1657565050,false,-1,0,1100,1,0
1,2,34,3,3,457,515,450,0,0,1657565053,1657565098,1657565153,100,55,2,3,1.5555555555556,2,1657565078,1657565118,1657565050,true,511,1657565150,511,4,0.93846153846154
1,3,167,3,3,580,540,490,0,0,1657565153,1657565183,1657565196,43,13,2,6,18.367346938776,2,1657565163,1657565118,1657565194,false,511,1657565150,490,3,0
1,4,72,3,3,806,750,920,0,0,1657565196,1657565236,1657565251,55,15,3,4,12.391304347826,2,1657565208,1657565118,1657565250,false,511,1657565150,920,3,0
1,5,117,3,3,560,670,620,0,0,1657565251,1657565281,1657565290,39,9,2,4,9.6774193548387,2,1657565256,1657565118,1657565288,false,511,1657565150,620,4,0
1,6,144,3,3,329,400,310,0,0,1657565290,1657565325,1657565341,51,16,4,3,6.1290322580645,2,1657565304,1657565118,1657565337,false,511,1657565150,310,4,0
1,7,56,3,3,405,460,420,0,0,1657565341,1657565401,1657565414,73,13,2,4,3.5714285714286,3,1657565379,1657565118,1657565413,false,511,1657565150,420,4,0
1,8,36,3,3,790,755,650,0,0,1657565414,1657565450,1657565461,47,11,2,4,21.538461538462,3,1657565423,1657565118,1657565460,false,511,1657565150,650,3,0
1,9,164,3,3,1150,1180,1800,0,0,1657565461,1657565506,1657565518,57,12,3,5,36.111111111111,3,1657565471,1657565118,1657565515,false,511,1657565150,1800,1,0
1,10,176,3,3,390,390,410,0,0,1657565518,1657565543,1657565555,37,12,1,5,4.8780487804878,3,1657565529,1657565118,1657565551,false,511,1657565150,410,4,0
1,11,110,3,3,758,755,620,0,0,1657565555,1657565613,1657565628,73,15,2,3,22.258064516129,3,1657565564,1657565118,1657565628,false,511,1657565150,620,3,0
1,12,113,3,3,750,790,710,0,0,1657565629,1657565683,1657565691,62,8,2,3,5.6338028169014,5,1657565646,1657565118,1657565690,false,511,1657565150,710,4,0
1,13,63,3,3,1300,1175,920,0,0,1657565691,1657565722,1657565761,70,39,5,5,41.304347826087,5,1657565699,1657565751,1657565690,true,1100,1657565760,1100,3,0.70588235294118
1,14,60,3,3,870,855,910,0,0,1657565761,1657565789,1657565803,42,14,2,4,4.3956043956044,5,1657565768,1657565751,1657565801,false,1100,1657565760,910,4,0
1,15,114,3,3,1340,1090,890,0,0,1657565803,1657565834,1657565864,61,30,4,4,50.561797752809,5,1657565814,1657565751,1657565862,false,1100,1657565760,890,2,0
1,16,62,3,3,474,480,510,0,0,1657565864,1657565894,1657565901,37,7,1,5,7.0588235294118,5,1657565876,1657565751,1657565900,false,1100,1657565760,510,4,0
1,17,156,3,3,430,400,460,0,0,1657565901,1657565940,1657565949,48,9,2,5,6.5217391304348,5,1657565919,1657565751,1657565947,false,1100,1657565760,460,4,0
1,18,107,3,3,790,755,560,0,0,1657565949,1657566008,1657566029,80,21,5,3,41.071428571429,5,1657565954,1657566020,1657565947,true,670,1657566027,670,3,0.56410256410256
1,20,104,3,3,670,745,670,0,0,1657566064,1657566092,1657566115,51,23,2,4,0,5,1657566068,1657566106,1657566062,true,720,1657566114,720,4,0.66666666666667
1,21,130,3,3,875,980,960,0,0,1657566115,1657566153,1657566160,45,7,1,5,8.8541666666667,5,1657566128,1657566106,1657566158,false,720,1657566114,960,4,0
1,22,136,3,3,690,790,730,0,0,1657566160,1657566203,1657566224,64,21,2,5,5.4794520547945,5,1657566178,1657566216,1657566158,true,760,1657566222,760,4,0.5
1,23,29,3,3,1415,1240,1450,0,0,1657566224,1657566261,1657566272,48,11,3,6,2.4137931034483,5,1657566233,1657566216,1657566271,false,760,1657566222,1450,5,0
1,24,187,3,3,1550,1295,1120,0,0,1657566272,1657566310,1657566326,54,16,3,5,38.392857142857,5,1657566283,1657566216,1657566324,false,760,1657566222,1120,2,0
1,25,129,3,3,605,755,610,0,0,1657566326,1657566355,1657566370,44,15,3,5,0.81967213114754,5,1657566332,1657566216,1657566369,false,760,1657566222,610,5,0
1,26,5,3,3,791,595,670,0,0,1657566371,1657566415,1657566426,55,11,2,5,18.059701492537,5,1657566381,1657566216,1657566424,false,760,1657566222,670,3,0
1,27,146,3,3,1300,1175,1050,0,0,1657566426,1657566489,1657566516,90,27,2,6,23.809523809524,4,1657566472,1657566506,1657566424,true,1150,1657566513,1150,4,0.8
1,28,195,3,3,1815,1260,1370,0,0,1657566516,1657566555,1657566568,52,13,2,5,32.481751824818,4,1657566527,1657566506,1657566566,false,1150,1657566513,1370,2,0
1,29,84,3,3,1385,910,920,0,0,1657566568,1657566627,1657566636,68,9,1,5,50.54347826087,4,1657566583,1657566506,1657566635,false,1150,1657566513,920,2,0
2,0,3,3,1,640,650,0,0,0,1657598585,0,1657598612,27,0,0,0,0,0,0,0,0,0,0,0,0,0,0
2,1,163,3,1,450,410,0,0,0,1657598612,0,1657598630,18,0,0,0,0,0,0,0,0,0,0,0,0,0,0
2,2,32,3,1,895,1005,0,0,0,1657598630,0,1657598652,22,0,0,0,0,0,0,0,0,0,0,0,0,0,0
2,3,4,3,1,950,1060,0,0,0,1657598652,0,1657598866,214,0,0,0,0,0,0,0,0,0,0,0,0,0,0
2,4,192,3,1,950,910,0,0,0,1657598866,0,1657598877,11,0,0,0,0,0,0,0,0,0,0,0,0,0,0
2,5,170,3,1,460,465,0,0,0,1657598877,0,1657598890,13,0,0,0,0,0,0,0,0,0,0,0,0,0,0
2,6,122,3,1,725,725,0,0,0,1657598890,0,1657598902,12,0,0,0,0,0,0,0,0,0,0,0,0,0,0
2,7,119,3,1,750,720,0,0,0,1657598902,0,1657598912,10,0,0,0,0,0,0,0,0,0,0,0,0,0,0
2,8,44,3,1,750,745,0,0,0,1657598912,0,1657598918,6,0,0,0,0,0,0,0,0,0,0,0,0,0,0
2,9,196,3,1,650,675,0,0,0,1657598918,0,1657598924,6,0,0,0,0,0,0,0,0,0,0,0,0,0,0
2,10,86,3,1,850,875,0,0,0,1657598924,0,1657598936,12,0,0,0,0,0,0,0,0,0,0,0,0,0,0
2,11,120,3,1,522,490,0,0,0,1657598936,0,1657598943,7,0,0,0,0,0,0,0,0,0,0,0,0,0,0
2,12,147,3,1,420,430,0,0,0,1657598944,0,1657598952,8,0,0,0,0,0,0,0,0,0,0,0,0,0,0
2,13,58,3,1,490,530,0,0,0,1657598953,0,1657598962,9,0,0,0,0,0,0,0,0,0,0,0,0,0,0
2,14,139,3,1,490,455,0,0,0,1657598962,0,1657598972,10,0,0,0,0,0,0,0,0,0,0,0,0,0,0
2,15,75,3,1,994,1010,0,0,0,1657598972,0,1657598980,8,0,0,0,0,0,0,0,0,0,0,0,0,0,0
2,16,106,3,1,457,495,0,0,0,1657598980,0,1657598991,11,0,0,0,0,0,0,0,0,0,0,0,0,0,0
2,17,41,3,1,817,805,0,0,0,1657598991,0,1657598998,7,0,0,0,0,0,0,0,0,0,0,0,0,0,0
2,18,10,3,1,700,660,0,0,0,1657598998,0,1657599011,13,0,0,0,0,0,0,0,0,0,0,0,0,0,0
2,19,105,3,1,716,715,0,0,0,1657599011,0,1657599023,12,0,0,0,0,0,0,0,0,0,0,0,0,0,0
2,20,175,3,1,500,505,0,0,0,1657599023,0,1657599031,8,0,0,0,0,0,0,0,0,0,0,0,0,0,0
2,21,152,3,1,515,590,0,0,0,1657599031,0,1657599038,7,0,0,0,0,0,0,0,0,0,0,0,0,0,0
2,22,45,3,1,870,870,0,0,0,1657599038,0,1657599047,9,0,0,0,0,0,0,0,0,0,0,0,0,0,0
2,23,19,3,1,400,375,0,0,0,1657599047,0,1657599054,7,0,0,0,0,0,0,0,0,0,0,0,0,0,0
2,24,64,3,1,930,1030,0,0,0,1657599054,0,1657599064,10,0,0,0,0,0,0,0,0,0,0,0,0,0,0
2,25,181,3,1,789,720,0,0,0,1657599064,0,1657599072,8,0,0,0,0,0,0,0,0,0,0,0,0,0,0
2,26,8,3,1,720,745,0,0,0,1657599072,0,1657599078,6,0,0,0,0,0,0,0,0,0,0,0,0,0,0
2,27,137,3,1,659,570,0,0,0,1657599078,0,1657599084,6,0,0,0,0,0,0,0,0,0,0,0,0,0,0
2,28,98,3,1,790,910,0,0,0,1657599084,0,1657599092,8,0,0,0,0,0,0,0,0,0,0,0,0,0,0
2,29,157,3,1,585,540,0,0,0,1657599092,0,1657599099,7,0,0,0,0,0,0,0,0,0,0,0,0,0,0
2,0,107,3,2,790,755,0,650,820,1657599118,1657599200,1657599206,88,6,0,0,0,0,0,0,0,0,0,0,0,0,0
2,1,28,3,2,846,980,0,850,970,1657599206,1657599236,1657599238,32,2,0,0,0,0,0,0,0,0,0,0,0,0,0
2,2,65,3,2,450,450,0,400,510,1657599239,1657599258,1657599262,23,4,0,0,0,0,0,0,0,0,0,0,0,0,0
2,3,155,3,2,450,435,0,410,480,1657599262,1657599280,1657599282,20,2,0,0,0,0,0,0,0,0,0,0,0,0,0
2,4,124,3,2,430,505,0,450,520,1657599282,1657599296,1657599298,16,2,0,0,0,0,0,0,0,0,0,0,0,0,0
2,5,167,3,2,580,540,0,480,580,1657599298,1657599322,1657599324,26,2,0,0,0,0,0,0,0,0,0,0,0,0,0
2,6,36,3,2,790,755,0,750,880,1657599324,1657599339,1657599341,17,2,0,0,0,0,0,0,0,0,0,0,0,0,0
2,7,100,3,2,895,895,0,810,980,1657599341,1657599359,1657599360,19,1,0,0,0,0,0,0,0,0,0,0,0,0,0
2,8,110,3,2,758,755,0,790,860,1657599360,1657599377,1657599379,19,2,0,0,0,0,0,0,0,0,0,0,0,0,0
2,9,197,3,2,635,555,0,580,720,1657599380,1657599395,1657599396,16,1,0,0,0,0,0,0,0,0,0,0,0,0,0
3,0,32,3,1,895,1005,0,0,0,1657599603,0,1657599607,4,0,0,0,0,0,0,0,0,0,0,0,0,0,0
3,1,163,3,1,450,410,0,0,0,1657599607,0,1657599609,2,0,0,0,0,0,0,0,0,0,0,0,0,0,0
3,2,137,3,1,659,570,0,0,0,1657599609,0,1657599610,1,0,0,0,0,0,0,0,0,0,0,0,0,0,0
3,3,139,3,1,490,455,0,0,0,1657599610,0,1657599612,2,0,0,0,0,0,0,0,0,0,0,0,0,0,0
3,4,45,3,1,870,870,0,0,0,1657599612,0,1657599613,1,0,0,0,0,0,0,0,0,0,0,0,0,0,0
3,5,181,3,1,789,720,0,0,0,1657599613,0,1657599614,1,0,0,0,0,0,0,0,0,0,0,0,0,0,0
3,6,105,3,1,716,715,0,0,0,1657599615,0,1657599616,1,0,0,0,0,0,0,0,0,0,0,0,0,0,0
3,7,3,3,1,640,650,0,0,0,1657599616,0,1657599617,1,0,0,0,0,0,0,0,0,0,0,0,0,0,0
3,8,196,3,1,650,675,0,0,0,1657599617,0,1657599619,2,0,0,0,0,0,0,0,0,0,0,0,0,0,0
3,9,147,3,1,420,430,0,0,0,1657599619,0,1657599620,1,0,0,0,0,0,0,0,0,0,0,0,0,0,0
3,10,10,3,1,700,660,0,0,0,1657599620,0,1657599621,1,0,0,0,0,0,0,0,0,0,0,0,0,0,0
3,11,192,3,1,950,910,0,0,0,1657599621,0,1657599623,2,0,0,0,0,0,0,0,0,0,0,0,0,0,0
3,12,170,3,1,460,465,0,0,0,1657599623,0,1657599624,1,0,0,0,0,0,0,0,0,0,0,0,0,0,0
3,13,41,3,1,817,805,0,0,0,1657599624,0,1657599625,1,0,0,0,0,0,0,0,0,0,0,0,0,0,0
3,14,4,3,1,950,1060,0,0,0,1657599625,0,1657599626,1,0,0,0,0,0,0,0,0,0,0,0,0,0,0
3,15,152,3,1,515,590,0,0,0,1657599626,0,1657599628,2,0,0,0,0,0,0,0,0,0,0,0,0,0,0
3,16,157,3,1,585,540,0,0,0,1657599628,0,1657599629,1,0,0,0,0,0,0,0,0,0,0,0,0,0,0
3,17,120,3,1,522,490,0,0,0,1657599629,0,1657599630,1,0,0,0,0,0,0,0,0,0,0,0,0,0,0
3,18,58,3,1,490,530,0,0,0,1657599631,0,1657599632,1,0,0,0,0,0,0,0,0,0,0,0,0,0,0
3,19,175,3,1,500,505,0,0,0,1657599632,0,1657599633,1,0,0,0,0,0,0,0,0,0,0,0,0,0,0
3,20,75,3,1,994,1010,0,0,0,1657599633,0,1657599634,1,0,0,0,0,0,0,0,0,0,0,0,0,0,0
3,21,19,3,1,400,375,0,0,0,1657599634,0,1657599635,1,0,0,0,0,0,0,0,0,0,0,0,0,0,0
3,22,106,3,1,457,495,0,0,0,1657599636,0,1657599637,1,0,0,0,0,0,0,0,0,0,0,0,0,0,0
3,23,44,3,1,750,745,0,0,0,1657599637,0,1657599638,1,0,0,0,0,0,0,0,0,0,0,0,0,0,0
3,24,86,3,1,850,875,0,0,0,1657599638,0,1657599639,1,0,0,0,0,0,0,0,0,0,0,0,0,0,0
3,25,119,3,1,750,720,0,0,0,1657599639,0,1657599640,1,0,0,0,0,0,0,0,0,0,0,0,0,0,0
3,26,98,3,1,790,910,0,0,0,1657599641,0,1657599642,1,0,0,0,0,0,0,0,0,0,0,0,0,0,0
3,27,8,3,1,720,745,0,0,0,1657599642,0,1657599643,1,0,0,0,0,0,0,0,0,0,0,0,0,0,0
3,28,64,3,1,930,1030,0,0,0,1657599643,0,1657599645,2,0,0,0,0,0,0,0,0,0,0,0,0,0,0
3,29,122,3,1,725,725,0,0,0,1657599645,0,1657599646,1,0,0,0,0,0,0,0,0,0,0,0,0,0,0
3,0,110,3,2,758,755,0,720,890,1657599649,1657599671,1657599673,24,2,0,0,0,0,0,0,0,0,0,0,0,0,0
3,1,155,3,2,450,435,0,420,580,1657599673,1657599693,1657599694,21,1,0,0,0,0,0,0,0,0,0,0,0,0,0
3,2,167,3,2,580,540,0,520,600,1657599695,1657599708,1657599709,14,1,0,0,0,0,0,0,0,0,0,0,0,0,0
3,3,65,3,2,450,450,0,480,560,1657599709,1657599726,1657599727,18,1,0,0,0,0,0,0,0,0,0,0,0,0,0
3,4,107,3,2,790,755,0,750,820,1657599728,1657599741,1657599742,14,1,0,0,0,0,0,0,0,0,0,0,0,0,0
3,5,197,3,2,635,555,0,630,750,1657599742,1657599757,1657599758,16,1,0,0,0,0,0,0,0,0,0,0,0,0,0
3,6,36,3,2,790,755,0,640,760,1657599758,1657599770,1657599771,13,1,0,0,0,0,0,0,0,0,0,0,0,0,0
3,7,28,3,2,846,980,0,880,990,1657599772,1657599787,1657599788,16,1,0,0,0,0,0,0,0,0,0,0,0,0,0
3,8,100,3,2,895,895,0,820,950,1657599788,1657599800,1657599802,14,2,0,0,0,0,0,0,0,0,0,0,0,0,0
3,9,124,3,2,430,505,0,530,610,1657599802,1657599818,1657599819,17,1,0,0,0,0,0,0,0,0,0,0,0,0,0
4,0,106,3,1,457,495,0,0,0,1657624271,0,1657624276,5,0,0,0,0,0,0,0,0,0,0,0,0,0,0
4,1,192,3,1,950,910,0,0,0,1657624276,0,1657624287,11,0,0,0,0,0,0,0,0,0,0,0,0,0,0
4,2,41,3,1,817,805,0,0,0,1657624288,0,1657624295,7,0,0,0,0,0,0,0,0,0,0,0,0,0,0
4,3,122,3,1,725,725,0,0,0,1657624296,0,1657624316,20,0,0,0,0,0,0,0,0,0,0,0,0,0,0
4,4,8,3,1,720,745,0,0,0,1657624316,0,1657624324,8,0,0,0,0,0,0,0,0,0,0,0,0,0,0
4,5,139,3,1,490,455,0,0,0,1657624324,0,1657624336,12,0,0,0,0,0,0,0,0,0,0,0,0,0,0
4,6,170,3,1,460,465,0,0,0,1657624336,0,1657624352,16,0,0,0,0,0,0,0,0,0,0,0,0,0,0
4,7,119,3,1,750,720,0,0,0,1657624352,0,1657624359,7,0,0,0,0,0,0,0,0,0,0,0,0,0,0
4,8,64,3,1,930,1030,0,0,0,1657624359,0,1657624403,44,0,0,0,0,0,0,0,0,0,0,0,0,0,0
4,9,58,3,1,490,530,0,0,0,1657624403,0,1657624411,8,0,0,0,0,0,0,0,0,0,0,0,0,0,0
4,10,3,3,1,640,650,0,0,0,1657624412,0,1657624418,6,0,0,0,0,0,0,0,0,0,0,0,0,0,0
4,11,45,3,1,870,870,0,0,0,1657624418,0,1657624422,4,0,0,0,0,0,0,0,0,0,0,0,0,0,0
4,12,32,3,1,895,1005,0,0,0,1657624422,0,1657624430,8,0,0,0,0,0,0,0,0,0,0,0,0,0,0
4,13,152,3,1,515,590,0,0,0,1657624430,0,1657624437,7,0,0,0,0,0,0,0,0,0,0,0,0,0,0
4,14,147,3,1,420,430,0,0,0,1657624437,0,1657624445,8,0,0,0,0,0,0,0,0,0,0,0,0,0,0
4,15,10,3,1,700,660,0,0,0,1657624445,0,1657624449,4,0,0,0,0,0,0,0,0,0,0,0,0,0,0
4,16,163,3,1,450,410,0,0,0,1657624449,0,1657624458,9,0,0,0,0,0,0,0,0,0,0,0,0,0,0
4,17,4,3,1,950,1060,0,0,0,1657624458,0,1657624485,27,0,0,0,0,0,0,0,0,0,0,0,0,0,0
4,18,175,3,1,500,505,0,0,0,1657624485,0,1657624493,8,0,0,0,0,0,0,0,0,0,0,0,0,0,0
4,19,181,3,1,789,720,0,0,0,1657624493,0,1657624495,2,0,0,0,0,0,0,0,0,0,0,0,0,0,0
4,20,86,3,1,850,875,0,0,0,1657624495,0,1657624497,2,0,0,0,0,0,0,0,0,0,0,0,0,0,0
4,21,137,3,1,659,570,0,0,0,1657624498,0,1657624501,3,0,0,0,0,0,0,0,0,0,0,0,0,0,0
4,22,105,3,1,716,715,0,0,0,1657624502,0,1657624504,2,0,0,0,0,0,0,0,0,0,0,0,0,0,0
4,23,44,3,1,750,745,0,0,0,1657624504,0,1657624510,6,0,0,0,0,0,0,0,0,0,0,0,0,0,0
4,24,196,3,1,650,675,0,0,0,1657624510,0,1657624516,6,0,0,0,0,0,0,0,0,0,0,0,0,0,0
4,25,75,3,1,994,1010,0,0,0,1657624516,0,1657624544,28,0,0,0,0,0,0,0,0,0,0,0,0,0,0
4,26,98,3,1,790,910,0,0,0,1657624544,0,1657624551,7,0,0,0,0,0,0,0,0,0,0,0,0,0,0
4,27,120,3,1,522,490,0,0,0,1657624551,0,1657624554,3,0,0,0,0,0,0,0,0,0,0,0,0,0,0
4,28,157,3,1,585,540,0,0,0,1657624555,0,1657624562,7,0,0,0,0,0,0,0,0,0,0,0,0,0,0
4,29,19,3,1,400,375,0,0,0,1657624562,0,1657624563,1,0,0,0,0,0,0,0,0,0,0,0,0,0,0
4,0,107,3,2,790,755,0,580,750,1657624575,1657624648,1657624656,81,8,0,0,0,0,0,0,0,0,0,0,0,0,0
4,1,197,3,2,635,555,0,400,550,1657624656,1657624673,1657624675,19,2,0,0,0,0,0,0,0,0,0,0,0,0,0
4,2,110,3,2,758,755,0,600,700,1657624675,1657624688,1657624689,14,1,0,0,0,0,0,0,0,0,0,0,0,0,0
4,3,100,3,2,895,895,0,700,900,1657624689,1657624703,1657624704,15,1,0,0,0,0,0,0,0,0,0,0,0,0,0
4,4,28,3,2,846,980,0,750,800,1657624705,1657624716,1657624717,12,1,0,0,0,0,0,0,0,0,0,0,0,0,0
4,5,36,3,2,790,755,0,580,700,1657624717,1657624733,1657624734,17,1,0,0,0,0,0,0,0,0,0,0,0,0,0
4,6,155,3,2,450,435,0,380,450,1657624734,1657624757,1657624760,26,3,0,0,0,0,0,0,0,0,0,0,0,0,0
4,7,124,3,2,430,505,0,400,500,1657624789,1657625304,1657625305,516,1,0,0,0,0,0,0,0,0,0,0,0,0,0
4,8,167,3,2,580,540,0,400,500,1657625305,1657625317,1657625318,13,1,0,0,0,0,0,0,0,0,0,0,0,0,0
4,9,65,3,2,450,450,0,400,500,1657625318,1657625327,1657625328,10,1,0,0,0,0,0,0,0,0,0,0,0,0,0
4,0,114,3,3,1340,1090,900,0,0,1657625332,1657625343,1657625359,27,16,2,3,48.888888888889,0,0,0,1657625358,false,-1,0,900,2,0
4,1,36,3,3,790,755,700,0,0,1657625359,1657625399,1657625403,44,4,2,4,12.857142857143,0,1657625362,0,1657625402,false,-1,0,700,4,0
4,2,113,3,3,750,790,800,0,0,1657625403,1657625426,1657625429,26,3,1,4,6.25,5,1657625410,0,1657625429,false,-1,0,800,4,0
4,3,167,3,3,580,540,450,0,0,1657625430,1657625443,1657625455,25,12,3,5,28.888888888889,5,1657625432,1657625451,1657625429,true,500,1657625454,500,3,0.55555555555556
4,4,63,3,3,1300,1175,850,0,0,1657625455,1657625479,1657625498,43,19,4,4,52.941176470588,5,1657625460,1657625490,1657625429,true,1200,1657625497,1200,4,1.0769230769231
4,5,144,3,3,329,400,380,0,0,1657625498,1657625523,1657625527,29,4,1,5,13.421052631579,5,1657625501,1657625490,1657625526,false,1200,1657625497,380,3,0
4,6,136,3,3,690,790,800,0,0,1657625527,1657625549,1657625553,26,4,1,4,13.75,5,1657625533,1657625490,1657625553,false,1200,1657625497,800,3,0
4,7,110,3,3,758,755,650,0,0,1657625554,1657625585,1657625595,41,10,3,3,16.615384615385,5,1657625574,1657625490,1657625593,false,1200,1657625497,650,3,0
4,8,107,3,3,790,755,680,0,0,1657625595,1657625627,1657625640,45,13,3,3,16.176470588235,5,1657625601,1657625490,1657625639,false,1200,1657625497,680,3,0
4,9,62,3,3,474,480,450,0,0,1657625640,1657625653,1657625661,21,8,1,5,5.3333333333333,5,1657625644,1657625490,1657625659,false,1200,1657625497,450,4,0
4,10,29,3,3,1415,1240,1400,0,0,1657625661,1657625674,1657625681,20,7,2,4,1.0714285714286,5,1657625663,1657625490,1657625680,false,1200,1657625497,1400,5,0
5,0,170,3,1,460,465,0,0,0,1657625686,0,1657625712,26,0,0,0,0,0,0,0,0,0,0,0,0,0,0
5,1,45,3,1,870,870,0,0,0,1657625712,0,1657625721,9,0,0,0,0,0,0,0,0,0,0,0,0,0,0
5,2,139,3,1,490,455,0,0,0,1657625721,0,1657625728,7,0,0,0,0,0,0,0,0,0,0,0,0,0,0
4,11,117,3,3,560,670,750,0,0,1657625681,1657625698,1657625730,49,32,2,5,25.333333333333,5,1657625686,1657625711,1657625680,true,720,1657625727,720,2,0.375
5,3,119,3,1,750,720,0,0,0,1657625728,0,1657625739,11,0,0,0,0,0,0,0,0,0,0,0,0,0,0
5,4,152,3,1,515,590,0,0,0,1657625739,0,1657625752,13,0,0,0,0,0,0,0,0,0,0,0,0,0,0
5,5,64,3,1,930,1030,0,0,0,1657625752,0,1657625765,13,0,0,0,0,0,0,0,0,0,0,0,0,0,0
4,12,34,3,3,457,515,450,0,0,1657625730,1657625775,1657625782,52,7,2,4,1.5555555555556,5,1657625753,1657625778,1657625680,true,500,1657625780,500,4,0.76923076923077
4,13,56,3,3,405,460,430,0,0,1657625782,1657625799,1657625805,23,6,1,5,5.8139534883721,5,1657625787,1657625778,1657625805,false,500,1657625780,430,4,0
5,6,122,3,1,725,725,0,0,0,1657625765,0,1657625815,50,0,0,0,0,0,0,0,0,0,0,0,0,0,0
5,7,120,3,1,522,490,0,0,0,1657625815,0,1657625821,6,0,0,0,0,0,0,0,0,0,0,0,0,0,0
5,8,106,3,1,457,495,0,0,0,1657625821,0,1657625829,8,0,0,0,0,0,0,0,0,0,0,0,0,0,0
4,14,129,3,3,605,755,750,0,0,1657625805,1657625828,1657625831,26,3,1,4,19.333333333333,5,1657625809,1657625778,1657625830,false,500,1657625780,750,3,0
5,9,4,3,1,950,1060,0,0,0,1657625829,0,1657625837,8,0,0,0,0,0,0,0,0,0,0,0,0,0,0
4,15,146,3,3,1300,1175,1300,0,0,1657625832,1657625844,1657625848,16,4,3,4,0,5,1657625834,1657625778,1657625848,false,500,1657625780,1300,5,0
5,10,163,3,1,450,410,0,0,0,1657625838,0,1657625851,13,0,0,0,0,0,0,0,0,0,0,0,0,0,0
5,11,44,3,1,750,745,0,0,0,1657625851,0,1657625854,3,0,0,0,0,0,0,0,0,0,0,0,0,0,0
5,12,196,3,1,650,675,0,0,0,1657625854,0,1657625868,14,0,0,0,0,0,0,0,0,0,0,0,0,0,0
4,16,130,3,3,875,980,800,0,0,1657625849,1657625865,1657625883,34,18,4,4,9.375,5,1657625853,1657625879,1657625848,true,900,1657625882,900,5,0.55555555555556
5,13,137,3,1,659,570,0,0,0,1657625868,0,1657625891,23,0,0,0,0,0,0,0,0,0,0,0,0,0,0
5,14,175,3,1,500,505,0,0,0,1657625891,0,1657625894,3,0,0,0,0,0,0,0,0,0,0,0,0,0,0
5,15,19,3,1,400,375,0,0,0,1657625894,0,1657625899,5,0,0,0,0,0,0,0,0,0,0,0,0,0,0
5,16,10,3,1,700,660,0,0,0,1657625899,0,1657625901,2,0,0,0,0,0,0,0,0,0,0,0,0,0,0
5,17,181,3,1,789,720,0,0,0,1657625901,0,1657625906,5,0,0,0,0,0,0,0,0,0,0,0,0,0,0
5,18,75,3,1,994,1010,0,0,0,1657625906,0,1657625907,1,0,0,0,0,0,0,0,0,0,0,0,0,0,0
4,17,195,3,3,1815,1260,1700,0,0,1657625884,1657625907,1657625912,28,5,6,5,6.7647058823529,4,1657625897,1657625879,1657625911,false,900,1657625882,1700,4,0
5,19,86,3,1,850,875,0,0,0,1657625907,0,1657625920,13,0,0,0,0,0,0,0,0,0,0,0,0,0,0
5,20,192,3,1,950,910,0,0,0,1657625920,0,1657625922,2,0,0,0,0,0,0,0,0,0,0,0,0,0,0
5,21,41,3,1,817,805,0,0,0,1657625922,0,1657625927,5,0,0,0,0,0,0,0,0,0,0,0,0,0,0
5,22,32,3,1,895,1005,0,0,0,1657625927,0,1657625934,7,0,0,0,0,0,0,0,0,0,0,0,0,0,0
5,23,98,3,1,790,910,0,0,0,1657625934,0,1657625937,3,0,0,0,0,0,0,0,0,0,0,0,0,0,0
5,24,58,3,1,490,530,0,0,0,1657625937,0,1657625945,8,0,0,0,0,0,0,0,0,0,0,0,0,0,0
5,25,147,3,1,420,430,0,0,0,1657625945,0,1657625949,4,0,0,0,0,0,0,0,0,0,0,0,0,0,0
5,26,157,3,1,585,540,0,0,0,1657625949,0,1657625959,10,0,0,0,0,0,0,0,0,0,0,0,0,0,0
5,27,105,3,1,716,715,0,0,0,1657625959,0,1657625961,2,0,0,0,0,0,0,0,0,0,0,0,0,0,0
5,28,3,3,1,640,650,0,0,0,1657625961,0,1657625964,3,0,0,0,0,0,0,0,0,0,0,0,0,0,0
5,29,8,3,1,720,745,0,0,0,1657625964,0,1657625965,1,0,0,0,0,0,0,0,0,0,0,0,0,0,0
5,0,65,3,2,450,450,0,485,515,1657625969,1657626001,1657626003,34,2,0,0,0,0,0,0,0,0,0,0,0,0,0
4,18,84,3,3,1385,910,950,0,0,1657625912,1657626000,1657626005,93,5,1,5,45.789473684211,4,1657625917,1657625879,1657626003,false,900,1657625882,950,2,0
5,1,36,3,2,790,755,0,725,750,1657626003,1657626026,1657626028,25,2,0,0,0,0,0,0,0,0,0,0,0,0,0
5,2,124,3,2,430,505,0,515,540,1657626028,1657626039,1657626040,12,1,0,0,0,0,0,0,0,0,0,0,0,0,0
4,19,104,3,3,670,745,700,0,0,1657626005,1657626037,1657626045,40,8,1,4,4.2857142857143,4,1657626009,1657626042,1657626044,false,900,1657625882,700,4,0
5,3,167,3,2,580,540,0,515,540,1657626040,1657626052,1657626054,14,2,0,0,0,0,0,0,0,0,0,0,0,0,0
4,20,40,3,3,1950,1080,1300,0,0,1657626045,1657626058,1657626063,18,5,3,5,50,4,1657626047,1657626042,1657626062,false,900,1657625882,1300,2,0
5,4,100,3,2,895,895,0,840,880,1657626054,1657626075,1657626077,23,2,0,0,0,0,0,0,0,0,0,0,0,0,0
5,5,28,3,2,846,980,0,800,850,1657626077,1657626088,1657626089,12,1,0,0,0,0,0,0,0,0,0,0,0,0,0
5,6,110,3,2,758,755,0,725,750,1657626089,1657626104,1657626105,16,1,0,0,0,0,0,0,0,0,0,0,0,0,0
5,7,197,3,2,635,555,0,645,670,1657626105,1657626134,1657626135,30,1,0,0,0,0,0,0,0,0,0,0,0,0,0
5,8,155,3,2,450,435,0,485,505,1657626135,1657626147,1657626148,13,1,0,0,0,0,0,0,0,0,0,0,0,0,0
4,21,72,3,3,806,750,780,0,0,1657626063,1657626150,1657626153,90,3,2,5,3.3333333333333,4,1657626137,1657626042,1657626152,false,900,1657625882,780,4,0
5,9,107,3,2,790,755,0,725,750,1657626148,1657626158,1657626159,11,1,0,0,0,0,0,0,0,0,0,0,0,0,0
4,22,60,3,3,870,855,850,0,0,1657626154,1657626196,1657626202,48,6,1,4,2.3529411764706,4,1657626160,1657626042,1657626201,false,900,1657625882,850,5,0
4,23,115,3,3,405,460,450,0,0,1657626202,1657626211,1657626216,14,5,1,5,10,4,1657626204,1657626042,1657626215,false,900,1657625882,450,4,0
4,24,5,3,3,791,595,600,0,0,1657626216,1657626252,1657626257,41,5,1,4,31.833333333333,4,1657626219,1657626042,1657626256,false,900,1657625882,600,2,0
4,25,156,3,3,430,400,450,0,0,1657626257,1657626272,1657626277,20,5,1,4,4.4444444444444,4,1657626263,1657626042,1657626276,false,900,1657625882,450,4,0
4,26,33,3,3,980,890,900,0,0,1657626277,1657626292,1657626298,21,6,1,4,8.8888888888889,4,1657626279,1657626042,1657626297,false,900,1657625882,900,4,0
5,0,107,3,3,790,755,750,0,0,1657626266,1657626288,1657626308,42,20,1,6,5.3333333333333,0,0,0,1657626307,false,-1,0,750,4,0
4,27,164,3,3,1150,1180,1900,0,0,1657626298,1657626318,1657626323,25,5,7,5,39.473684210526,4,1657626309,1657626042,1657626322,false,900,1657625882,1900,1,0
5,1,84,3,3,1385,910,850,0,0,1657626308,1657626338,1657626356,48,18,4,5,62.941176470588,0,1657626324,1657626348,1657626307,true,900,1657626355,900,2,0.83333333333333
4,28,187,3,3,1550,1295,1100,0,0,1657626324,1657626348,1657626376,52,28,3,5,40.909090909091,4,1657626334,1657626371,1657626322,true,1200,1657626375,1200,3,0.51282051282051
4,29,176,3,3,390,390,400,0,0,1657626377,1657626392,1657626397,20,5,1,5,2.5,4,1657626382,1657626371,1657626396,false,1200,1657626375,400,5,0
5,2,34,3,3,457,515,550,0,0,1657626356,1657626399,1657626411,55,12,5,5,16.909090909091,3,1657626380,1657626348,1657626410,false,900,1657626355,550,3,0
5,3,117,3,3,560,670,725,0,0,1657626411,1657626436,1657626452,41,16,5,4,22.758620689655,3,1657626421,1657626348,1657626451,false,900,1657626355,725,2,0
5,4,176,3,3,390,390,425,0,0,1657626452,1657626485,1657626500,48,15,5,1,8.2352941176471,3,1657626468,1657626492,1657626451,true,400,1657626499,400,5,0.71428571428571
5,5,167,3,3,580,540,525,0,0,1657626500,1657626524,1657626538,38,14,3,5,10.47619047619,3,1657626513,1657626533,1657626537,false,400,1657626499,525,4,0
5,6,187,3,3,1550,1295,1100,0,0,1657626538,1657626561,1657626579,41,18,5,1,40.909090909091,3,1657626543,1657626571,1657626537,true,1150,1657626578,1150,2,0.25641025641026
5,7,164,3,3,1150,1180,1500,0,0,1657626579,1657626604,1657626612,33,8,7,4,23.333333333333,4,1657626593,1657626571,1657626611,false,1150,1657626578,1500,2,0
5,8,5,3,3,791,595,670,0,0,1657626612,1657626632,1657626654,42,22,5,1,18.059701492537,4,1657626617,1657626640,1657626611,true,630,1657626647,630,3,0.53333333333333
5,9,63,3,3,1300,1175,1000,0,0,1657626654,1657626714,1657626722,68,8,5,1,30,4,1657626661,1657626640,1657626721,false,630,1657626647,1000,3,0
5,10,72,3,3,806,750,700,0,0,1657626722,1657626740,1657626746,24,6,5,4,15.142857142857,4,1657626725,1657626640,1657626745,false,630,1657626647,700,3,0
5,11,62,3,3,474,480,515,0,0,1657626746,1657626764,1657626773,27,9,6,7,7.9611650485437,4,1657626750,1657626640,1657626772,false,630,1657626647,515,4,0
5,12,195,3,3,1815,1260,1180,0,0,1657626773,1657626804,1657626817,44,13,5,7,53.813559322034,5,1657626786,1657626811,1657626772,true,1260,1657626816,1260,2,1
5,13,146,3,3,1300,1175,1000,0,0,1657626817,1657626829,1657626841,24,12,4,7,30,5,1657626822,1657626835,1657626772,true,1175,1657626839,1175,4,1
5,14,129,3,3,605,755,750,0,0,1657626841,1657626852,1657626860,19,8,1,7,19.333333333333,5,1657626845,1657626835,1657626859,false,1175,1657626839,750,3,0
5,15,104,3,3,670,745,750,0,0,1657626860,1657626872,1657626880,20,8,1,7,10.666666666667,5,1657626864,1657626835,1657626877,false,1175,1657626839,750,4,0
5,16,33,3,3,980,890,800,0,0,1657626880,1657626891,1657626908,28,17,4,5,22.5,5,1657626882,1657626900,1657626877,true,850,1657626907,850,3,0.55555555555556
5,17,56,3,3,405,460,500,0,0,1657626908,1657626926,1657626947,39,21,5,7,19,6,1657626914,1657626942,1657626877,true,480,1657626946,480,3,0.5
5,18,115,3,3,405,460,440,0,0,1657626947,1657626965,1657626971,24,6,5,7,7.9545454545455,6,1657626950,1657626942,1657626970,false,480,1657626946,440,4,0
5,19,130,3,3,875,980,950,0,0,1657626971,1657626983,1657626996,25,13,5,6,7.8947368421053,6,1657626973,1657626992,1657626970,true,980,1657626995,980,4,1
5,20,40,3,3,1950,1080,1300,0,0,1657626996,1657627024,1657627032,36,8,7,7,50,6,1657627001,1657626992,1657627031,false,980,1657626995,1300,2,0
5,21,29,3,3,1415,1240,1500,0,0,1657627032,1657627046,1657627051,19,5,7,4,5.6666666666667,6,1657627035,1657626992,1657627050,false,980,1657626995,1500,4,0
5,22,113,3,3,750,790,800,0,0,1657627051,1657627075,1657627079,28,4,4,7,6.25,4,1657627064,1657626992,1657627078,false,980,1657626995,800,4,0
5,23,114,3,3,1340,1090,950,0,0,1657627079,1657627096,1657627106,27,10,5,5,41.052631578947,4,1657627083,1657627102,1657627078,true,1000,1657627104,1000,2,0.35714285714286
5,24,136,3,3,690,790,800,0,0,1657627106,1657627135,1657627141,35,6,4,4,13.75,4,1657627108,1657627102,1657627140,false,1000,1657627104,800,3,0
5,25,110,3,3,758,755,750,0,0,1657627141,1657627151,1657627159,18,8,1,7,1.0666666666667,4,1657627144,1657627102,1657627158,false,1000,1657627104,750,5,0
5,26,156,3,3,430,400,515,0,0,1657627159,1657627177,1657627196,37,19,7,7,16.504854368932,4,1657627163,1657627188,1657627158,true,470,1657627195,470,4,0.39130434782609
5,28,60,3,3,870,855,800,0,0,1657627225,1657627241,1657627256,31,15,5,5,8.75,5,1657627228,1657627250,1657627224,true,855,1657627255,855,5,1
5,29,36,3,3,790,755,750,0,0,1657627256,1657627271,1657627283,27,12,1,5,5.3333333333333,5,1657627261,1657627278,1657627224,true,755,1657627282,755,4,1
6,0,139,3,1,490,455,0,0,0,1657652202,0,1657652237,35,0,0,0,0,0,0,0,0,0,0,0,0,0,0
6,1,120,3,1,522,490,0,0,0,1657652237,0,1657652274,37,0,0,0,0,0,0,0,0,0,0,0,0,0,0
6,2,196,3,1,650,675,0,0,0,1657652275,0,1657652311,36,0,0,0,0,0,0,0,0,0,0,0,0,0,0
6,3,45,3,1,870,870,0,0,0,1657652311,0,1657652376,65,0,0,0,0,0,0,0,0,0,0,0,0,0,0
6,4,137,3,1,659,570,0,0,0,1657652377,0,1657652418,41,0,0,0,0,0,0,0,0,0,0,0,0,0,0
6,5,32,3,1,895,1005,0,0,0,1657652418,0,1657652471,53,0,0,0,0,0,0,0,0,0,0,0,0,0,0
6,6,44,3,1,750,745,0,0,0,1657652471,0,1657652504,33,0,0,0,0,0,0,0,0,0,0,0,0,0,0
6,7,122,3,1,725,725,0,0,0,1657652504,0,1657652540,36,0,0,0,0,0,0,0,0,0,0,0,0,0,0
6,8,98,3,1,790,910,0,0,0,1657652540,0,1657652569,29,0,0,0,0,0,0,0,0,0,0,0,0,0,0
6,9,170,3,1,460,465,0,0,0,1657652569,0,1657652596,27,0,0,0,0,0,0,0,0,0,0,0,0,0,0
6,10,181,3,1,789,720,0,0,0,1657652596,0,1657652613,17,0,0,0,0,0,0,0,0,0,0,0,0,0,0
6,11,58,3,1,490,530,0,0,0,1657652614,0,1657652641,27,0,0,0,0,0,0,0,0,0,0,0,0,0,0
6,12,147,3,1,420,430,0,0,0,1657652641,0,1657652655,14,0,0,0,0,0,0,0,0,0,0,0,0,0,0
6,13,192,3,1,950,910,0,0,0,1657652655,0,1657652736,81,0,0,0,0,0,0,0,0,0,0,0,0,0,0
6,14,105,3,1,716,715,0,0,0,1657652737,0,1657652769,32,0,0,0,0,0,0,0,0,0,0,0,0,0,0
6,15,3,3,1,640,650,0,0,0,1657652770,0,1657652802,32,0,0,0,0,0,0,0,0,0,0,0,0,0,0
6,16,8,3,1,720,745,0,0,0,1657652803,0,1657652814,11,0,0,0,0,0,0,0,0,0,0,0,0,0,0
6,17,119,3,1,750,720,0,0,0,1657652815,0,1657652833,18,0,0,0,0,0,0,0,0,0,0,0,0,0,0
6,18,19,3,1,400,375,0,0,0,1657652833,0,1657652858,25,0,0,0,0,0,0,0,0,0,0,0,0,0,0
6,19,152,3,1,515,590,0,0,0,1657652858,0,1657652882,24,0,0,0,0,0,0,0,0,0,0,0,0,0,0
6,20,4,3,1,950,1060,0,0,0,1657652882,0,1657652923,41,0,0,0,0,0,0,0,0,0,0,0,0,0,0
6,21,41,3,1,817,805,0,0,0,1657652924,0,1657652950,26,0,0,0,0,0,0,0,0,0,0,0,0,0,0
6,22,86,3,1,850,875,0,0,0,1657652950,0,1657652971,21,0,0,0,0,0,0,0,0,0,0,0,0,0,0
6,23,75,3,1,994,1010,0,0,0,1657652971,0,1657652984,13,0,0,0,0,0,0,0,0,0,0,0,0,0,0
6,24,106,3,1,457,495,0,0,0,1657652985,0,1657653001,16,0,0,0,0,0,0,0,0,0,0,0,0,0,0
6,25,175,3,1,500,505,0,0,0,1657653001,0,1657653012,11,0,0,0,0,0,0,0,0,0,0,0,0,0,0
6,26,163,3,1,450,410,0,0,0,1657653012,0,1657653029,17,0,0,0,0,0,0,0,0,0,0,0,0,0,0
6,27,64,3,1,930,1030,0,0,0,1657653029,0,1657653045,16,0,0,0,0,0,0,0,0,0,0,0,0,0,0
6,28,10,3,1,700,660,0,0,0,1657653045,0,1657653072,27,0,0,0,0,0,0,0,0,0,0,0,0,0,0
6,29,157,3,1,585,540,0,0,0,1657653072,0,1657653088,16,0,0,0,0,0,0,0,0,0,0,0,0,0,0
6,0,36,3,2,790,755,0,680,790,1657653118,1657653165,1657653167,49,2,0,0,0,0,0,0,0,0,0,0,0,0,0
6,1,110,3,2,758,755,0,700,900,1657653167,1657653213,1657653215,48,2,0,0,0,0,0,0,0,0,0,0,0,0,0
6,2,100,3,2,895,895,0,750,900,1657653215,1657653258,1657653261,46,3,0,0,0,0,0,0,0,0,0,0,0,0,0
6,3,65,3,2,450,450,0,400,550,1657653261,1657653295,1657653297,36,2,0,0,0,0,0,0,0,0,0,0,0,0,0
6,4,155,3,2,450,435,0,450,550,1657653298,1657653324,1657653327,29,3,0,0,0,0,0,0,0,0,0,0,0,0,0
6,5,107,3,2,790,755,0,750,900,1657653327,1657653361,1657653364,37,3,0,0,0,0,0,0,0,0,0,0,0,0,0
6,6,167,3,2,580,540,0,500,650,1657653365,1657653387,1657653390,25,3,0,0,0,0,0,0,0,0,0,0,0,0,0
6,7,197,3,2,635,555,0,650,800,1657653390,1657653433,1657653436,46,3,0,0,0,0,0,0,0,0,0,0,0,0,0
6,8,124,3,2,430,505,0,450,550,1657653436,1657653456,1657653458,22,2,0,0,0,0,0,0,0,0,0,0,0,0,0
6,9,28,3,2,846,980,0,800,950,1657653459,1657653499,1657653502,43,3,0,0,0,0,0,0,0,0,0,0,0,0,0
6,0,117,3,3,560,670,700,0,0,1657653563,1657653637,1657653673,110,36,2,5,20,0,0,0,1657653664,false,-1,0,700,2,0
6,1,40,3,3,1950,1080,950,0,0,1657653674,1657653723,1657653751,77,28,2,5,105.26315789474,0,1657653693,0,1657653750,false,-1,0,950,1,0
6,2,129,3,3,605,755,550,0,0,1657653752,1657653831,1657653842,90,11,6,3,10,4,1657653782,0,1657653841,false,-1,0,550,4,0
6,3,115,3,3,405,460,500,0,0,1657653843,1657653875,1657653887,44,12,2,6,19,4,1657653851,0,1657653886,false,-1,0,500,3,0
6,4,146,3,3,1300,1175,1900,0,0,1657653888,1657653930,1657653950,62,20,6,3,31.578947368421,4,1657653898,0,1657653946,false,-1,0,1900,1,0
6,5,187,3,3,1550,1295,1500,0,0,1657653950,1657654007,1657654042,92,35,5,3,3.3333333333333,4,1657653959,1657654029,1657653946,true,1350,1657654040,1350,4,0.73170731707317
6,6,167,3,3,580,540,500,0,0,1657654042,1657654087,1657654097,55,10,1,6,16,4,1657654055,1657654029,1657654094,false,1350,1657654040,500,3,0
6,7,5,3,3,791,595,700,0,0,1657654097,1657654150,1657654175,78,25,6,3,13,4,1657654114,1657654165,1657654094,true,650,1657654171,650,3,0.47619047619048
6,8,56,3,3,405,460,450,0,0,1657654175,1657654214,1657654223,48,9,1,6,10,4,1657654183,1657654165,1657654222,false,650,1657654171,450,4,0
6,9,63,3,3,1300,1175,1400,0,0,1657654223,1657654259,1657654276,53,17,6,6,7.1428571428571,4,1657654228,1657654165,1657654270,false,650,1657654171,1400,4,0
6,10,136,3,3,690,790,850,0,0,1657654276,1657654310,1657654321,45,11,1,7,18.823529411765,4,1657654282,1657654165,1657654318,false,650,1657654171,850,3,0
6,11,195,3,3,1815,1260,1700,0,0,1657654321,1657654369,1657654386,65,17,7,4,6.7647058823529,4,1657654328,1657654379,1657654318,true,1500,1657654383,1500,3,0.45454545454545
6,12,130,3,3,875,980,900,0,0,1657654387,1657654427,1657654437,50,10,1,5,2.7777777777778,5,1657654401,1657654379,1657654434,false,1500,1657654383,900,5,0
6,13,113,3,3,750,790,700,0,0,1657654438,1657654466,1657654475,37,9,2,1,7.1428571428571,5,1657654442,1657654379,1657654474,false,1500,1657654383,700,4,0
6,14,62,3,3,474,480,500,0,0,1657654476,1657654501,1657654511,35,10,1,6,5.2,5,1657654478,1657654379,1657654507,false,1500,1657654383,500,4,0
6,15,114,3,3,1340,1090,900,0,0,1657654511,1657654555,1657654573,62,18,5,6,48.888888888889,5,1657654513,1657654567,1657654507,true,1000,1657654571,1000,2,0.52631578947368
6,16,110,3,3,758,755,700,0,0,1657654573,1657654599,1657654606,33,7,1,6,8.2857142857143,5,1657654577,1657654567,1657654605,false,1000,1657654571,700,4,0
6,17,104,3,3,670,745,750,0,0,1657654607,1657654633,1657654645,38,12,1,6,10.666666666667,6,1657654613,1657654567,1657654641,false,1000,1657654571,750,4,0
6,18,164,3,3,1150,1180,1450,0,0,1657654645,1657654677,1657654711,66,34,7,5,20.689655172414,6,1657654648,1657654691,1657654641,true,1250,1657654709,1250,4,0.74074074074074
6,19,156,3,3,430,400,459,0,0,1657654712,1657654730,1657654744,32,14,2,7,6.318082788671,6,1657654716,1657654691,1657654742,false,1250,1657654709,459,4,0
6,20,36,3,3,790,755,600,0,0,1657654745,1657654778,1657654796,51,18,6,7,31.666666666667,6,1657654753,1657654789,1657654742,true,650,1657654793,650,3,0.32258064516129
6,21,34,3,3,457,515,450,0,0,1657654797,1657654826,1657654838,41,12,4,6,1.5555555555556,6,1657654800,1657654789,1657654835,false,650,1657654793,450,5,0
6,23,84,3,3,1385,910,900,0,0,1657654883,1657654912,1657654919,36,7,1,7,53.888888888889,6,1657654886,1657654789,1657654918,false,650,1657654793,900,2,0
6,24,29,3,3,1415,1240,1400,0,0,1657654920,1657654954,1657654966,46,12,5,6,1.0714285714286,6,1657654926,1657654789,1657654965,false,650,1657654793,1400,5,0
6,25,60,3,3,870,855,900,0,0,1657654966,1657655000,1657655010,44,10,1,7,3.3333333333333,6,1657654971,1657654789,1657655007,false,650,1657654793,900,4,0
6,26,107,3,3,790,755,650,0,0,1657655010,1657655037,1657655048,38,11,6,3,21.538461538462,6,1657655015,1657654789,1657655045,false,650,1657654793,650,3,0
6,27,176,3,3,390,390,350,0,0,1657655048,1657655081,1657655089,41,8,2,6,11.428571428571,5,1657655057,1657654789,1657655088,false,650,1657654793,350,4,0
6,28,144,3,3,329,400,300,0,0,1657655089,1657655119,1657655138,49,19,5,5,9.6666666666667,5,1657655092,1657655131,1657655088,true,350,1657655135,350,4,0.5
6,29,33,3,3,980,890,850,0,0,1657655138,1657655164,1657655174,36,10,1,6,15.294117647059,5,1657655143,1657655131,1657655171,false,350,1657655135,850,3,0
7,0,10,3,1,700,660,0,0,0,1657671254,0,1657671346,92,0,0,0,0,0,0,0,0,0,0,0,0,0,0
7,1,137,3,1,659,570,0,0,0,1657671347,0,1657671390,43,0,0,0,0,0,0,0,0,0,0,0,0,0,0
7,2,4,3,1,950,1060,0,0,0,1657671390,0,1657671407,17,0,0,0,0,0,0,0,0,0,0,0,0,0,0
7,3,139,3,1,490,455,0,0,0,1657671407,0,1657671421,14,0,0,0,0,0,0,0,0,0,0,0,0,0,0
7,4,120,3,1,522,490,0,0,0,1657671421,0,1657671436,15,0,0,0,0,0,0,0,0,0,0,0,0,0,0
7,5,75,3,1,994,1010,0,0,0,1657671436,0,1657671458,22,0,0,0,0,0,0,0,0,0,0,0,0,0,0
7,6,192,3,1,950,910,0,0,0,1657671458,0,1657671482,24,0,0,0,0,0,0,0,0,0,0,0,0,0,0
7,7,3,3,1,640,650,0,0,0,1657671482,0,1657671496,14,0,0,0,0,0,0,0,0,0,0,0,0,0,0
7,8,98,3,1,790,910,0,0,0,1657671496,0,1657671524,28,0,0,0,0,0,0,0,0,0,0,0,0,0,0
7,9,181,3,1,789,720,0,0,0,1657671524,0,1657671545,21,0,0,0,0,0,0,0,0,0,0,0,0,0,0
7,10,157,3,1,585,540,0,0,0,1657671545,0,1657673074,1529,0,0,0,0,0,0,0,0,0,0,0,0,0,0
7,11,41,3,1,817,805,0,0,0,1657673074,0,1657673103,29,0,0,0,0,0,0,0,0,0,0,0,0,0,0
7,12,196,3,1,650,675,0,0,0,1657673103,0,1657673119,16,0,0,0,0,0,0,0,0,0,0,0,0,0,0
7,13,105,3,1,716,715,0,0,0,1657673120,0,1657673147,27,0,0,0,0,0,0,0,0,0,0,0,0,0,0
7,14,163,3,1,450,410,0,0,0,1657673147,0,1657673155,8,0,0,0,0,0,0,0,0,0,0,0,0,0,0
7,15,44,3,1,750,745,0,0,0,1657673155,0,1657673172,17,0,0,0,0,0,0,0,0,0,0,0,0,0,0
7,16,147,3,1,420,430,0,0,0,1657673172,0,1657673183,11,0,0,0,0,0,0,0,0,0,0,0,0,0,0
7,17,170,3,1,460,465,0,0,0,1657673183,0,1657673198,15,0,0,0,0,0,0,0,0,0,0,0,0,0,0
7,18,86,3,1,850,875,0,0,0,1657673198,0,1657673209,11,0,0,0,0,0,0,0,0,0,0,0,0,0,0
7,19,32,3,1,895,1005,0,0,0,1657673209,0,1657673221,12,0,0,0,0,0,0,0,0,0,0,0,0,0,0
7,20,175,3,1,500,505,0,0,0,1657673221,0,1657673236,15,0,0,0,0,0,0,0,0,0,0,0,0,0,0
7,21,119,3,1,750,720,0,0,0,1657673236,0,1657673252,16,0,0,0,0,0,0,0,0,0,0,0,0,0,0
7,22,8,3,1,720,745,0,0,0,1657673252,0,1657673258,6,0,0,0,0,0,0,0,0,0,0,0,0,0,0
7,23,58,3,1,490,530,0,0,0,1657673258,0,1657673264,6,0,0,0,0,0,0,0,0,0,0,0,0,0,0
7,24,122,3,1,725,725,0,0,0,1657673265,0,1657673274,9,0,0,0,0,0,0,0,0,0,0,0,0,0,0
7,25,106,3,1,457,495,0,0,0,1657673274,0,1657673278,4,0,0,0,0,0,0,0,0,0,0,0,0,0,0
7,26,152,3,1,515,590,0,0,0,1657673278,0,1657673294,16,0,0,0,0,0,0,0,0,0,0,0,0,0,0
7,27,45,3,1,870,870,0,0,0,1657673295,0,1657673304,9,0,0,0,0,0,0,0,0,0,0,0,0,0,0
7,28,19,3,1,400,375,0,0,0,1657673304,0,1657673309,5,0,0,0,0,0,0,0,0,0,0,0,0,0,0
7,29,64,3,1,930,1030,0,0,0,1657673309,0,1657673330,21,0,0,0,0,0,0,0,0,0,0,0,0,0,0
7,0,155,3,2,450,435,0,400,480,1657673359,1657673382,1657673385,26,3,0,0,0,0,0,0,0,0,0,0,0,0,0
7,1,36,3,2,790,755,0,600,760,1657673386,1657673412,1657673415,29,3,0,0,0,0,0,0,0,0,0,0,0,0,0
7,2,124,3,2,430,505,0,420,500,1657673415,1657673445,1657673447,32,2,0,0,0,0,0,0,0,0,0,0,0,0,0
7,3,28,3,2,846,980,0,750,970,1657673447,1657673477,1657673478,31,1,0,0,0,0,0,0,0,0,0,0,0,0,0
7,4,107,3,2,790,755,0,600,800,1657673478,1657673488,1657673491,13,3,0,0,0,0,0,0,0,0,0,0,0,0,0
7,5,100,3,2,895,895,0,700,970,1657673491,1657673513,1657673515,24,2,0,0,0,0,0,0,0,0,0,0,0,0,0
7,6,197,3,2,635,555,0,450,650,1657673515,1657673534,1657673538,23,4,0,0,0,0,0,0,0,0,0,0,0,0,0
7,7,167,3,2,580,540,0,400,550,1657673538,1657673554,1657673556,18,2,0,0,0,0,0,0,0,0,0,0,0,0,0
7,8,110,3,2,758,755,0,700,900,1657673556,1657673589,1657673590,34,1,0,0,0,0,0,0,0,0,0,0,0,0,0
7,9,65,3,2,450,450,0,400,550,1657673590,1657673607,1657673609,19,2,0,0,0,0,0,0,0,0,0,0,0,0,0
7,0,29,3,3,1415,1240,990,0,0,1657673817,1657673838,1657673862,45,24,3,5,42.929292929293,0,0,1657673853,0,true,1100,1657673859,1100,3,0.44
7,1,33,3,3,980,890,900,0,0,1657673862,1657673903,1657673915,53,12,1,4,8.8888888888889,0,1657673873,1657673853,1657673912,false,1100,1657673859,900,4,0
7,2,5,3,3,791,595,550,0,0,1657673915,1657673952,1657673965,50,13,2,4,43.818181818182,4,1657673940,1657673853,1657673964,false,1100,1657673859,550,2,0
7,3,40,3,3,1950,1080,1600,0,0,1657673965,1657673993,1657674016,51,23,6,4,21.875,4,1657673971,1657674010,1657673964,true,1500,1657674014,1500,3,0.19230769230769
7,4,176,3,3,390,390,400,0,0,1657674016,1657674036,1657674044,28,8,1,4,2.5,4,1657674023,1657674010,1657674043,false,1500,1657674014,400,5,0
7,5,110,3,3,758,755,850,0,0,1657674044,1657674069,1657674085,41,16,1,4,10.823529411765,4,1657674051,1657674078,1657674043,true,800,1657674083,800,4,0.52631578947368
7,6,60,3,3,870,855,800,0,0,1657674085,1657674111,1657674131,46,20,2,5,8.75,4,1657674090,1657674124,1657674043,true,820,1657674130,820,4,0.36363636363636
7,8,63,3,3,1300,1175,1100,0,0,1657674167,1657674184,1657674192,25,8,1,5,18.181818181818,3,1657674174,1657674124,1657674191,false,820,1657674130,1100,3,0
7,9,136,3,3,690,790,800,0,0,1657674192,1657674237,1657674246,54,9,1,5,13.75,3,1657674219,1657674124,1657674243,false,820,1657674130,800,3,0
7,10,130,3,3,875,980,950,0,0,1657674246,1657674282,1657674296,50,14,2,5,7.8947368421053,3,1657674267,1657674124,1657674294,false,820,1657674130,950,4,0
7,11,167,3,3,580,540,400,0,0,1657674296,1657674313,1657674327,31,14,6,6,45,3,1657674303,1657674124,1657674326,false,820,1657674130,400,2,0
7,12,114,3,3,1340,1090,950,0,0,1657674327,1657674353,1657674377,50,24,2,5,41.052631578947,3,1657674336,1657674369,1657674375,false,820,1657674130,950,2,0
7,13,56,3,3,405,460,450,0,0,1657674377,1657674394,1657674400,23,6,1,5,10,3,1657674382,1657674369,1657674398,false,820,1657674130,450,4,0
7,14,146,3,3,1300,1175,1100,0,0,1657674400,1657674422,1657674430,30,8,1,5,18.181818181818,3,1657674407,1657674369,1657674428,false,820,1657674130,1100,3,0
7,15,107,3,3,790,755,800,0,0,1657674430,1657674453,1657674462,32,9,2,4,1.25,3,1657674434,1657674369,1657674461,false,820,1657674130,800,5,0
7,16,187,3,3,1550,1295,1300,0,0,1657674463,1657674490,1657674498,35,8,1,5,19.230769230769,3,1657674468,1657674369,1657674496,false,820,1657674130,1300,3,0
7,17,36,3,3,790,755,720,0,0,1657674498,1657674524,1657674536,38,12,1,4,9.7222222222222,4,1657674508,1657674369,1657674534,false,820,1657674130,720,4,0
7,18,113,3,3,750,790,800,0,0,1657674536,1657674565,1657674570,34,5,1,5,6.25,4,1657674541,1657674369,1657674569,false,820,1657674130,800,4,0
7,19,104,3,3,670,745,650,0,0,1657674570,1657674587,1657674602,32,15,2,3,3.0769230769231,4,1657674576,1657674593,1657674569,true,700,1657674600,700,4,0.52631578947368
7,20,164,3,3,1150,1180,1500,0,0,1657674602,1657674629,1657674641,39,12,6,4,23.333333333333,4,1657674614,1657674593,1657674640,false,700,1657674600,1500,2,0
7,21,115,3,3,405,460,400,0,0,1657674641,1657674657,1657674673,32,16,2,5,1.25,4,1657674645,1657674664,1657674640,true,430,1657674672,430,4,0.5
7,22,84,3,3,1385,910,950,0,0,1657674673,1657674733,1657674741,68,8,2,5,45.789473684211,3,1657674681,1657674664,1657674740,false,430,1657674672,950,2,0
7,23,34,3,3,457,515,400,0,0,1657674741,1657674754,1657674763,22,9,5,5,14.25,3,1657674745,1657674664,1657674761,false,430,1657674672,400,4,0
7,24,62,3,3,474,480,400,0,0,1657674763,1657674777,1657674791,28,14,2,5,18.5,3,1657674767,1657674783,1657674761,true,420,1657674787,420,4,0.25
7,25,195,3,3,1815,1260,1600,0,0,1657674791,1657674802,1657674820,29,18,5,4,13.4375,3,1657674793,1657674814,1657674761,true,1500,1657674818,1500,3,0.29411764705882
7,26,117,3,3,560,670,650,0,0,1657674820,1657674849,1657674855,35,6,1,5,13.846153846154,3,1657674823,1657674814,1657674854,false,1500,1657674818,650,3,0
7,27,129,3,3,605,755,600,0,0,1657674855,1657674887,1657674899,44,12,4,5,0.83333333333333,3,1657674861,1657674891,1657674854,true,650,1657674895,650,4,0.32258064516129
8,0,58,3,1,490,530,0,0,0,1657700758,0,1657700778,20,0,0,0,0,0,0,0,0,0,0,0,0,0,0
8,1,137,3,1,659,570,0,0,0,1657700778,0,1657700864,86,0,0,0,0,0,0,0,0,0,0,0,0,0,0
8,2,106,3,1,457,495,0,0,0,1657700864,0,1657700883,19,0,0,0,0,0,0,0,0,0,0,0,0,0,0
8,3,44,3,1,750,745,0,0,0,1657700883,0,1657700907,24,0,0,0,0,0,0,0,0,0,0,0,0,0,0
8,4,147,3,1,420,430,0,0,0,1657700907,0,1657700920,13,0,0,0,0,0,0,0,0,0,0,0,0,0,0
8,5,32,3,1,895,1005,0,0,0,1657700921,0,1657700938,17,0,0,0,0,0,0,0,0,0,0,0,0,0,0
8,6,163,3,1,450,410,0,0,0,1657700938,0,1657700957,19,0,0,0,0,0,0,0,0,0,0,0,0,0,0
8,7,41,3,1,817,805,0,0,0,1657700957,0,1657700975,18,0,0,0,0,0,0,0,0,0,0,0,0,0,0
8,8,181,3,1,789,720,0,0,0,1657700976,0,1657700980,4,0,0,0,0,0,0,0,0,0,0,0,0,0,0
8,9,105,3,1,716,715,0,0,0,1657700980,0,1657700983,3,0,0,0,0,0,0,0,0,0,0,0,0,0,0
8,10,19,3,1,400,375,0,0,0,1657700983,0,1657700985,2,0,0,0,0,0,0,0,0,0,0,0,0,0,0
8,11,196,3,1,650,675,0,0,0,1657700985,0,1657700987,2,0,0,0,0,0,0,0,0,0,0,0,0,0,0
8,12,8,3,1,720,745,0,0,0,1657700987,0,1657700992,5,0,0,0,0,0,0,0,0,0,0,0,0,0,0
8,13,64,3,1,930,1030,0,0,0,1657700992,0,1657701000,8,0,0,0,0,0,0,0,0,0,0,0,0,0,0
8,14,152,3,1,515,590,0,0,0,1657701000,0,1657701003,3,0,0,0,0,0,0,0,0,0,0,0,0,0,0
8,15,75,3,1,994,1010,0,0,0,1657701003,0,1657701005,2,0,0,0,0,0,0,0,0,0,0,0,0,0,0
8,16,86,3,1,850,875,0,0,0,1657701005,0,1657701009,4,0,0,0,0,0,0,0,0,0,0,0,0,0,0
8,17,119,3,1,750,720,0,0,0,1657701009,0,1657701023,14,0,0,0,0,0,0,0,0,0,0,0,0,0,0
8,18,157,3,1,585,540,0,0,0,1657701023,0,1657701032,9,0,0,0,0,0,0,0,0,0,0,0,0,0,0
8,19,192,3,1,950,910,0,0,0,1657701033,0,1657701037,4,0,0,0,0,0,0,0,0,0,0,0,0,0,0
8,20,139,3,1,490,455,0,0,0,1657701037,0,1657701039,2,0,0,0,0,0,0,0,0,0,0,0,0,0,0
8,21,170,3,1,460,465,0,0,0,1657701039,0,1657701041,2,0,0,0,0,0,0,0,0,0,0,0,0,0,0
8,22,4,3,1,950,1060,0,0,0,1657701041,0,1657701044,3,0,0,0,0,0,0,0,0,0,0,0,0,0,0
8,23,98,3,1,790,910,0,0,0,1657701044,0,1657701046,2,0,0,0,0,0,0,0,0,0,0,0,0,0,0
8,24,10,3,1,700,660,0,0,0,1657701046,0,1657701048,2,0,0,0,0,0,0,0,0,0,0,0,0,0,0
8,25,3,3,1,640,650,0,0,0,1657701048,0,1657701052,4,0,0,0,0,0,0,0,0,0,0,0,0,0,0
8,26,122,3,1,725,725,0,0,0,1657701052,0,1657701054,2,0,0,0,0,0,0,0,0,0,0,0,0,0,0
8,27,120,3,1,522,490,0,0,0,1657701054,0,1657701056,2,0,0,0,0,0,0,0,0,0,0,0,0,0,0
8,28,175,3,1,500,505,0,0,0,1657701056,0,1657701058,2,0,0,0,0,0,0,0,0,0,0,0,0,0,0
8,29,45,3,1,870,870,0,0,0,1657701059,0,1657701061,2,0,0,0,0,0,0,0,0,0,0,0,0,0,0
8,0,167,3,2,580,540,0,450,470,1657701065,1657701088,1657701090,25,2,0,0,0,0,0,0,0,0,0,0,0,0,0
8,1,100,3,2,895,895,0,750,890,1657701090,1657701120,1657701121,31,1,0,0,0,0,0,0,0,0,0,0,0,0,0
8,2,107,3,2,790,755,0,700,870,1657701121,1657701187,1657701188,67,1,0,0,0,0,0,0,0,0,0,0,0,0,0
8,3,197,3,2,635,555,0,650,780,1657701188,1657701203,1657701204,16,1,0,0,0,0,0,0,0,0,0,0,0,0,0
8,4,36,3,2,790,755,0,670,840,1657701205,1657701229,1657701230,25,1,0,0,0,0,0,0,0,0,0,0,0,0,0
8,5,155,3,2,450,435,0,400,520,1657701230,1657701243,1657701244,14,1,0,0,0,0,0,0,0,0,0,0,0,0,0
8,6,65,3,2,450,450,0,400,480,1657701245,1657701255,1657701256,11,1,0,0,0,0,0,0,0,0,0,0,0,0,0
8,7,110,3,2,758,755,0,670,830,1657701257,1657701268,1657701269,12,1,0,0,0,0,0,0,0,0,0,0,0,0,0
8,8,28,3,2,846,980,0,830,1100,1657701269,1657701296,1657701298,29,2,0,0,0,0,0,0,0,0,0,0,0,0,0
8,9,124,3,2,430,505,0,290,370,1657701298,1657701314,1657701315,17,1,0,0,0,0,0,0,0,0,0,0,0,0,0
8,0,187,3,3,1550,1295,980,0,0,1657701321,1657701356,1657701385,64,29,4,5,58.163265306122,0,0,1657701374,0,true,1200,1657701383,1200,3,0.6984126984127
8,1,129,3,3,605,755,670,0,0,1657701385,1657701421,1657701444,59,23,2,5,9.7014925373134,0,1657701397,1657701433,0,true,720,1657701443,720,3,0.58823529411765
8,2,176,3,3,390,390,457,0,0,1657701445,1657701481,1657701497,52,16,4,6,14.660831509847,4,1657701468,1657701486,0,true,430,1657701495,430,4,0.40298507462687
8,3,72,3,3,806,750,770,0,0,1657701497,1657701530,1657701536,39,6,1,6,4.6753246753247,4,1657701505,1657701486,1657701535,false,430,1657701495,770,4,0
8,4,40,3,3,1950,1080,1170,0,0,1657701536,1657701562,1657701568,32,6,1,6,66.666666666667,4,1657701543,1657701486,1657701567,false,430,1657701495,1170,1,0
8,5,117,3,3,560,670,780,0,0,1657701568,1657701593,1657701606,38,13,3,6,28.205128205128,4,1657701577,1657701604,1657701567,true,730,1657701605,730,2,0.45454545454545
8,6,144,3,3,329,400,420,0,0,1657701606,1657701623,1657701628,22,5,1,7,21.666666666667,4,1657701612,1657701604,1657701627,false,730,1657701605,420,2,0
8,7,33,3,3,980,890,750,0,0,1657701628,1657701650,1657701665,37,15,3,6,30.666666666667,5,1657701638,1657701654,1657701627,true,810,1657701665,810,3,0.42857142857143
8,8,167,3,3,580,540,450,0,0,1657701666,1657701677,1657701689,23,12,3,7,28.888888888889,5,1657701670,1657701681,1657701627,true,510,1657701688,510,4,0.66666666666667
8,9,110,3,3,758,755,780,0,0,1657701690,1657701717,1657701728,38,11,1,7,2.8205128205128,5,1657701697,1657701721,1657701627,true,770,1657701727,770,5,0.4
8,10,136,3,3,690,790,760,0,0,1657701728,1657701745,1657701753,25,8,1,7,9.2105263157895,5,1657701735,1657701748,1657701752,false,7,1657701727,760,4,0
8,11,114,3,3,1340,1090,1130,0,0,1657701753,1657701769,1657701779,26,10,1,7,18.58407079646,5,1657701761,1657701772,1657701778,false,1,1657701727,1130,3,0
8,12,107,3,3,790,755,840,0,0,1657701779,1657701812,1657701826,47,14,1,7,5.952380952381,6,1657701785,1657701816,1657701778,true,800,1657701825,800,5,0.47058823529412
8,13,5,3,3,791,595,750,0,0,1657701826,1657701846,1657701859,33,13,6,7,5.4666666666667,6,1657701829,1657701852,1657701778,true,670,1657701858,670,3,0.51612903225806
8,14,156,3,3,430,400,457,0,0,1657701860,1657701871,1657701876,16,5,1,7,5.9080962800875,6,1657701862,1657701852,1657701875,false,670,1657701858,457,4,0
8,15,62,3,3,474,480,465,0,0,1657701877,1657701906,1657701910,33,4,1,7,1.9354838709677,6,1657701880,1657701852,1657701910,false,670,1657701858,465,5,0
8,16,146,3,3,1300,1175,1130,0,0,1657701911,1657701936,1657701942,31,6,1,7,15.044247787611,6,1657701912,1657701852,1657701941,false,670,1657701858,1130,3,0
8,17,60,3,3,870,855,840,0,0,1657701942,1657701994,1657701998,56,4,1,7,3.5714285714286,6,1657701947,1657701852,1657701997,false,670,1657701858,840,4,0
8,18,84,3,3,1385,910,920,0,0,1657701998,1657702011,1657702014,16,3,1,7,50.54347826087,6,1657702000,1657701852,1657702013,false,670,1657701858,920,2,0
8,19,113,3,3,750,790,957,0,0,1657702014,1657702025,1657702036,22,11,3,7,21.630094043887,6,1657702019,1657702029,1657702013,true,930,1657702035,930,2,0.16167664670659
8,20,104,3,3,670,745,750,0,0,1657702036,1657702056,1657702059,23,3,1,7,10.666666666667,6,1657702038,1657702029,1657702058,false,930,1657702035,750,4,0
8,21,34,3,3,457,515,450,0,0,1657702060,1657702074,1657702085,25,11,2,7,1.5555555555556,6,1657702061,1657702078,1657702058,true,475,1657702084,475,4,0.38461538461538
8,22,29,3,3,1415,1240,1350,0,0,1657702085,1657702101,1657702108,23,7,3,7,4.8148148148148,6,1657702088,1657702078,1657702107,false,475,1657702084,1350,4,0
8,23,130,3,3,875,980,970,0,0,1657702109,1657702127,1657702130,21,3,1,7,9.7938144329897,6,1657702115,1657702078,1657702129,false,475,1657702084,970,4,0
8,24,195,3,3,1815,1260,1560,0,0,1657702130,1657702140,1657702149,19,9,6,7,16.346153846154,6,1657702131,1657702145,1657702148,false,475,1657702084,1560,3,0
8,25,56,3,3,405,460,450,0,0,1657702149,1657702161,1657702164,15,3,1,7,10,6,1657702155,1657702145,1657702163,false,475,1657702084,450,4,0
8,26,164,3,3,1150,1180,1250,0,0,1657702164,1657702179,1657702182,18,3,1,7,8,6,1657702168,1657702145,1657702181,false,475,1657702084,1250,4,0
8,27,36,3,3,790,755,780,0,0,1657702182,1657702202,1657702206,24,4,1,7,1.2820512820513,6,1657702185,1657702145,1657702205,false,475,1657702084,780,5,0
8,28,63,3,3,1300,1175,1210,0,0,1657702206,1657702245,1657702249,43,4,1,7,7.4380165289256,6,1657702207,1657702145,1657702248,false,475,1657702084,1210,4,0
8,29,115,3,3,405,460,467,0,0,1657702249,1657702259,1657702263,14,4,1,7,13.276231263383,6,1657702251,1657702145,1657702262,false,475,1657702084,467,3,0
9,0,58,3,1,490,530,0,0,0,1657703946,0,1657703957,11,0,0,0,0,0,0,0,0,0,0,0,0,0,0
9,1,192,3,1,950,910,0,0,0,1657703957,0,1657703968,11,0,0,0,0,0,0,0,0,0,0,0,0,0,0
9,2,3,3,1,640,650,0,0,0,1657703968,0,1657703981,13,0,0,0,0,0,0,0,0,0,0,0,0,0,0
9,3,75,3,1,994,1010,0,0,0,1657703981,0,1657703988,7,0,0,0,0,0,0,0,0,0,0,0,0,0,0
9,4,64,3,1,930,1030,0,0,0,1657703988,0,1657704000,12,0,0,0,0,0,0,0,0,0,0,0,0,0,0
9,5,181,3,1,789,720,0,0,0,1657704000,0,1657704015,15,0,0,0,0,0,0,0,0,0,0,0,0,0,0
9,6,86,3,1,850,875,0,0,0,1657704015,0,1657704027,12,0,0,0,0,0,0,0,0,0,0,0,0,0,0
9,7,106,3,1,457,495,0,0,0,1657704028,0,1657704035,7,0,0,0,0,0,0,0,0,0,0,0,0,0,0
9,8,45,3,1,870,870,0,0,0,1657704035,0,1657704046,11,0,0,0,0,0,0,0,0,0,0,0,0,0,0
9,9,163,3,1,450,410,0,0,0,1657704046,0,1657704060,14,0,0,0,0,0,0,0,0,0,0,0,0,0,0
9,10,8,3,1,720,745,0,0,0,1657704060,0,1657704071,11,0,0,0,0,0,0,0,0,0,0,0,0,0,0
9,11,139,3,1,490,455,0,0,0,1657704071,0,1657704082,11,0,0,0,0,0,0,0,0,0,0,0,0,0,0
9,12,44,3,1,750,745,0,0,0,1657704082,0,1657704105,23,0,0,0,0,0,0,0,0,0,0,0,0,0,0
9,13,196,3,1,650,675,0,0,0,1657704105,0,1657704111,6,0,0,0,0,0,0,0,0,0,0,0,0,0,0
9,14,170,3,1,460,465,0,0,0,1657704111,0,1657704125,14,0,0,0,0,0,0,0,0,0,0,0,0,0,0
9,15,98,3,1,790,910,0,0,0,1657704125,0,1657704136,11,0,0,0,0,0,0,0,0,0,0,0,0,0,0
9,16,122,3,1,725,725,0,0,0,1657704136,0,1657704144,8,0,0,0,0,0,0,0,0,0,0,0,0,0,0
9,17,4,3,1,950,1060,0,0,0,1657704144,0,1657704152,8,0,0,0,0,0,0,0,0,0,0,0,0,0,0
9,18,10,3,1,700,660,0,0,0,1657704152,0,1657704162,10,0,0,0,0,0,0,0,0,0,0,0,0,0,0
9,19,32,3,1,895,1005,0,0,0,1657704162,0,1657704169,7,0,0,0,0,0,0,0,0,0,0,0,0,0,0
9,20,105,3,1,716,715,0,0,0,1657704169,0,1657704178,9,0,0,0,0,0,0,0,0,0,0,0,0,0,0
9,21,157,3,1,585,540,0,0,0,1657704178,0,1657704190,12,0,0,0,0,0,0,0,0,0,0,0,0,0,0
9,22,137,3,1,659,570,0,0,0,1657704190,0,1657704203,13,0,0,0,0,0,0,0,0,0,0,0,0,0,0
9,23,147,3,1,420,430,0,0,0,1657704203,0,1657704208,5,0,0,0,0,0,0,0,0,0,0,0,0,0,0
9,24,175,3,1,500,505,0,0,0,1657704208,0,1657704213,5,0,0,0,0,0,0,0,0,0,0,0,0,0,0
9,25,120,3,1,522,490,0,0,0,1657704213,0,1657704221,8,0,0,0,0,0,0,0,0,0,0,0,0,0,0
9,26,41,3,1,817,805,0,0,0,1657704221,0,1657704227,6,0,0,0,0,0,0,0,0,0,0,0,0,0,0
9,27,119,3,1,750,720,0,0,0,1657704228,0,1657704234,6,0,0,0,0,0,0,0,0,0,0,0,0,0,0
9,28,19,3,1,400,375,0,0,0,1657704234,0,1657704239,5,0,0,0,0,0,0,0,0,0,0,0,0,0,0
9,29,152,3,1,515,590,0,0,0,1657704240,0,1657704248,8,0,0,0,0,0,0,0,0,0,0,0,0,0,0
9,0,100,3,2,895,895,0,800,950,1657704271,1657704355,1657704356,85,1,0,0,0,0,0,0,0,0,0,0,0,0,0
9,1,197,3,2,635,555,0,500,650,1657704356,1657704398,1657704398,42,0,0,0,0,0,0,0,0,0,0,0,0,0,0
9,2,36,3,2,790,755,0,750,900,1657704398,1657704428,1657704429,31,1,0,0,0,0,0,0,0,0,0,0,0,0,0
9,3,110,3,2,758,755,0,700,800,1657704429,1657704481,1657704482,53,1,0,0,0,0,0,0,0,0,0,0,0,0,0
9,4,65,3,2,450,450,0,420,500,1657704482,1657704501,1657704502,20,1,0,0,0,0,0,0,0,0,0,0,0,0,0
9,5,124,3,2,430,505,0,410,550,1657704502,1657704516,1657704517,15,1,0,0,0,0,0,0,0,0,0,0,0,0,0
9,6,155,3,2,450,435,0,400,500,1657704517,1657704527,1657704527,10,0,0,0,0,0,0,0,0,0,0,0,0,0,0
9,7,107,3,2,790,755,0,600,750,1657704527,1657704575,1657704576,49,1,0,0,0,0,0,0,0,0,0,0,0,0,0
9,8,167,3,2,580,540,0,600,780,1657704576,1657704605,1657704605,29,0,0,0,0,0,0,0,0,0,0,0,0,0,0
9,9,28,3,2,846,980,0,800,980,1657704605,1657704630,1657704630,25,0,0,0,0,0,0,0,0,0,0,0,0,0,0
9,0,195,3,3,1815,1260,1200,0,0,1657704701,1657704726,1657704743,42,17,2,3,51.25,0,0,0,1657704739,false,-1,0,1200,2,0
9,1,129,3,3,605,755,700,0,0,1657704743,1657704776,1657704784,41,8,2,4,13.571428571429,0,1657704747,0,1657704783,false,-1,0,700,3,0
9,2,117,3,3,560,670,650,0,0,1657704784,1657704837,1657704843,59,6,2,5,13.846153846154,3,1657704811,0,1657704842,false,-1,0,650,3,0
9,3,56,3,3,405,460,490,0,0,1657704843,1657704872,1657704877,34,5,2,5,17.34693877551,3,1657704850,0,1657704876,false,-1,0,490,3,0
9,4,136,3,3,690,790,800,0,0,1657704877,1657704903,1657704910,33,7,2,5,13.75,3,1657704887,0,1657704908,false,-1,0,800,3,0
9,5,113,3,3,750,790,900,0,0,1657704910,1657704934,1657704953,43,19,6,5,16.666666666667,3,1657704916,1657704945,1657704908,true,850,1657704952,850,3,0.45454545454545
9,6,130,3,3,875,980,900,0,0,1657704953,1657704979,1657705000,47,21,5,5,2.7777777777778,3,1657704961,1657704992,1657704908,true,950,1657704999,950,4,0.625
9,7,187,3,3,1550,1295,1100,0,0,1657705000,1657705033,1657705048,48,15,5,3,40.909090909091,3,1657705012,1657705039,1657704908,true,1210,1657705047,1210,3,0.56410256410256
9,8,146,3,3,1300,1175,1200,0,0,1657705048,1657705086,1657705092,44,6,2,3,8.3333333333333,3,1657705055,1657705039,1657705091,false,1210,1657705047,1200,4,0
9,9,72,3,3,806,750,910,0,0,1657705092,1657705128,1657705141,49,13,6,5,11.428571428571,3,1657705102,1657705134,1657705091,true,720,1657705140,720,4,1.1875
9,10,62,3,3,474,480,500,0,0,1657705141,1657705157,1657705175,34,18,2,5,5.2,3,1657705148,1657705168,1657705174,false,720,1657705140,500,4,0
9,11,176,3,3,390,390,420,0,0,1657705175,1657705194,1657705204,29,10,3,5,7.1428571428571,3,1657705180,1657705168,1657705203,false,720,1657705140,420,4,0
9,12,40,3,3,1950,1080,1000,0,0,1657705204,1657705229,1657705234,30,5,2,3,95,5,1657705211,1657705168,1657705233,false,720,1657705140,1000,1,0
9,13,33,3,3,980,890,800,0,0,1657705234,1657705264,1657705277,43,13,2,3,22.5,5,1657705243,1657705272,1657705233,true,850,1657705276,850,3,0.55555555555556
9,14,60,3,3,870,855,900,0,0,1657705277,1657705299,1657705317,40,18,2,3,3.3333333333333,5,1657705287,1657705272,1657705316,false,850,1657705276,900,4,0
9,15,104,3,3,670,745,500,0,0,1657705317,1657705366,1657705383,66,17,6,3,34,5,1657705321,1657705374,1657705316,true,710,1657705381,710,4,0.85714285714286
9,16,110,3,3,758,755,650,0,0,1657705383,1657705406,1657705424,41,18,6,3,16.615384615385,5,1657705390,1657705412,1657705316,true,710,1657705423,710,4,0.57142857142857
10,0,192,3,1,950,910,0,0,0,1657705417,0,1657705442,25,0,0,0,0,0,0,0,0,0,0,0,0,0,0
9,17,84,3,3,1385,910,950,0,0,1657705425,1657705441,1657705446,21,5,2,5,45.789473684211,6,1657705433,1657705412,1657705446,false,710,1657705423,950,2,0
10,1,105,3,1,716,715,0,0,0,1657705442,0,1657705455,13,0,0,0,0,0,0,0,0,0,0,0,0,0,0
10,2,19,3,1,400,375,0,0,0,1657705455,0,1657705468,13,0,0,0,0,0,0,0,0,0,0,0,0,0,0
9,18,144,3,3,329,400,380,0,0,1657705446,1657705468,1657705473,27,5,2,5,13.421052631579,6,1657705453,1657705412,1657705472,false,710,1657705423,380,3,0
10,3,122,3,1,725,725,0,0,0,1657705468,0,1657705481,13,0,0,0,0,0,0,0,0,0,0,0,0,0,0
10,4,163,3,1,450,410,0,0,0,1657705481,0,1657705493,12,0,0,0,0,0,0,0,0,0,0,0,0,0,0
10,5,44,3,1,750,745,0,0,0,1657705493,0,1657705504,11,0,0,0,0,0,0,0,0,0,0,0,0,0,0
9,19,164,3,3,1150,1180,1300,0,0,1657705473,1657705487,1657705504,31,17,5,5,11.538461538462,6,1657705480,1657705412,1657705503,false,710,1657705423,1300,3,0
10,6,41,3,1,817,805,0,0,0,1657705504,0,1657705511,7,0,0,0,0,0,0,0,0,0,0,0,0,0,0
10,7,98,3,1,790,910,0,0,0,1657705511,0,1657705520,9,0,0,0,0,0,0,0,0,0,0,0,0,0,0
10,8,120,3,1,522,490,0,0,0,1657705520,0,1657705533,13,0,0,0,0,0,0,0,0,0,0,0,0,0,0
10,9,119,3,1,750,720,0,0,0,1657705534,0,1657705544,10,0,0,0,0,0,0,0,0,0,0,0,0,0,0
10,10,137,3,1,659,570,0,0,0,1657705544,0,1657705553,9,0,0,0,0,0,0,0,0,0,0,0,0,0,0
10,11,3,3,1,640,650,0,0,0,1657705553,0,1657705561,8,0,0,0,0,0,0,0,0,0,0,0,0,0,0
10,12,45,3,1,870,870,0,0,0,1657705561,0,1657705570,9,0,0,0,0,0,0,0,0,0,0,0,0,0,0
10,13,64,3,1,930,1030,0,0,0,1657705570,0,1657705587,17,0,0,0,0,0,0,0,0,0,0,0,0,0,0
10,14,10,3,1,700,660,0,0,0,1657705587,0,1657705595,8,0,0,0,0,0,0,0,0,0,0,0,0,0,0
10,15,8,3,1,720,745,0,0,0,1657705595,0,1657705602,7,0,0,0,0,0,0,0,0,0,0,0,0,0,0
10,16,58,3,1,490,530,0,0,0,1657705602,0,1657705608,6,0,0,0,0,0,0,0,0,0,0,0,0,0,0
10,17,139,3,1,490,455,0,0,0,1657705608,0,1657705615,7,0,0,0,0,0,0,0,0,0,0,0,0,0,0
10,18,75,3,1,994,1010,0,0,0,1657705615,0,1657705625,10,0,0,0,0,0,0,0,0,0,0,0,0,0,0
10,19,86,3,1,850,875,0,0,0,1657705625,0,1657705633,8,0,0,0,0,0,0,0,0,0,0,0,0,0,0
9,20,34,3,3,457,515,450,0,0,1657705504,1657705624,1657705640,136,16,3,3,1.5555555555556,6,1657705512,1657705634,1657705503,true,490,1657705638,490,4,0.61538461538462
10,20,4,3,1,950,1060,0,0,0,1657705633,0,1657705641,8,0,0,0,0,0,0,0,0,0,0,0,0,0,0
10,21,147,3,1,420,430,0,0,0,1657705641,0,1657705645,4,0,0,0,0,0,0,0,0,0,0,0,0,0,0
10,22,196,3,1,650,675,0,0,0,1657705645,0,1657705650,5,0,0,0,0,0,0,0,0,0,0,0,0,0,0
10,23,181,3,1,789,720,0,0,0,1657705650,0,1657705655,5,0,0,0,0,0,0,0,0,0,0,0,0,0,0
10,24,157,3,1,585,540,0,0,0,1657705655,0,1657705660,5,0,0,0,0,0,0,0,0,0,0,0,0,0,0
9,21,29,3,3,1415,1240,1200,0,0,1657705640,1657705660,1657705664,24,4,2,3,17.916666666667,6,1657705646,1657705634,1657705664,false,490,1657705638,1200,3,0
10,25,152,3,1,515,590,0,0,0,1657705660,0,1657705668,8,0,0,0,0,0,0,0,0,0,0,0,0,0,0
10,26,106,3,1,457,495,0,0,0,1657705668,0,1657705673,5,0,0,0,0,0,0,0,0,0,0,0,0,0,0
10,27,175,3,1,500,505,0,0,0,1657705673,0,1657705677,4,0,0,0,0,0,0,0,0,0,0,0,0,0,0
10,28,170,3,1,460,465,0,0,0,1657705677,0,1657705682,5,0,0,0,0,0,0,0,0,0,0,0,0,0,0
10,29,32,3,1,895,1005,0,0,0,1657705682,0,1657705686,4,0,0,0,0,0,0,0,0,0,0,0,0,0,0
9,22,156,3,3,430,400,380,0,0,1657705664,1657705686,1657705690,26,4,2,3,13.157894736842,4,1657705672,1657705634,1657705690,false,490,1657705638,380,4,0
10,0,28,3,2,846,980,0,800,1100,1657705696,1657705713,1657705714,18,1,0,0,0,0,0,0,0,0,0,0,0,0,0
9,23,5,3,3,791,595,500,0,0,1657705691,1657705704,1657705714,23,10,5,3,58.2,4,1657705696,1657705709,1657705690,true,550,1657705713,550,2,0.52631578947368
10,1,124,3,2,430,505,0,500,600,1657705714,1657705735,1657705736,22,1,0,0,0,0,0,0,0,0,0,0,0,0,0
9,24,115,3,3,405,460,390,0,0,1657705714,1657705745,1657705751,37,6,5,3,3.8461538461538,4,1657705722,1657705709,1657705750,false,550,1657705713,390,4,0
9,25,167,3,3,580,540,600,0,0,1657705751,1657705766,1657705772,21,6,2,3,3.3333333333333,4,1657705755,1657705709,1657705771,false,550,1657705713,600,4,0
9,26,63,3,3,1300,1175,1000,0,0,1657705772,1657705811,1657705825,53,14,4,3,30,4,1657705775,1657705820,1657705771,true,1100,1657705823,1100,3,0.57142857142857
9,27,107,3,3,790,755,650,0,0,1657705825,1657705848,1657705860,35,12,5,3,21.538461538462,5,1657705836,1657705853,1657705771,true,700,1657705858,700,4,0.47619047619048
10,2,107,3,2,790,755,0,600,800,1657705736,1657705879,1657705880,144,1,0,0,0,0,0,0,0,0,0,0,0,0,0
9,28,36,3,3,790,755,750,0,0,1657705860,1657705882,1657705886,26,4,2,3,5.3333333333333,5,1657705863,1657705853,1657705886,false,700,1657705858,750,4,0
10,3,100,3,2,895,895,0,700,900,1657705880,1657705890,1657705891,11,1,0,0,0,0,0,0,0,0,0,0,0,0,0
10,4,197,3,2,635,555,0,500,650,1657705891,1657705901,1657705902,11,1,0,0,0,0,0,0,0,0,0,0,0,0,0
10,5,155,3,2,450,435,0,450,550,1657705902,1657705914,1657705915,13,1,0,0,0,0,0,0,0,0,0,0,0,0,0
10,6,36,3,2,790,755,0,700,850,1657705915,1657705926,1657705926,11,0,0,0,0,0,0,0,0,0,0,0,0,0,0
9,29,114,3,3,1340,1090,1200,0,0,1657705886,1657705921,1657705933,47,12,5,3,11.666666666667,5,1657705891,1657705928,1657705886,true,1100,1657705932,1100,3,0.90909090909091
10,7,167,3,2,580,540,0,600,700,1657705927,1657705937,1657705938,11,1,0,0,0,0,0,0,0,0,0,0,0,0,0
10,8,65,3,2,450,450,0,500,600,1657705938,1657705954,1657705955,17,1,0,0,0,0,0,0,0,0,0,0,0,0,0
10,9,110,3,2,758,755,0,850,900,1657705955,1657705966,1657705967,12,1,0,0,0,0,0,0,0,0,0,0,0,0,0
10,0,36,3,3,790,755,750,0,0,1657706041,1657706058,1657706068,27,10,2,4,5.3333333333333,0,0,0,1657706066,false,-1,0,750,4,0
10,1,84,3,3,1385,910,850,0,0,1657706068,1657706093,1657706112,44,19,4,4,62.941176470588,0,1657706081,1657706106,1657706066,true,870,1657706110,870,2,0.33333333333333
10,2,5,3,3,791,595,700,0,0,1657706112,1657706156,1657706165,53,9,5,5,13,3,1657706131,1657706106,1657706164,false,870,1657706110,700,4,0
10,3,110,3,3,758,755,750,0,0,1657706165,1657706200,1657706218,53,18,3,3,1.0666666666667,3,1657706172,1657706106,1657706217,false,870,1657706110,750,5,0
10,4,187,3,3,1550,1295,950,0,0,1657706218,1657706244,1657706262,44,18,5,5,63.157894736842,3,1657706228,1657706257,1657706217,true,1100,1657706260,1100,2,0.43478260869565
10,5,176,3,3,390,390,500,0,0,1657706262,1657706279,1657706292,30,13,5,5,22,3,1657706270,1657706287,1657706217,true,450,1657706291,450,3,0.45454545454545
10,6,113,3,3,750,790,850,0,0,1657706292,1657706323,1657706329,37,6,4,5,11.764705882353,3,1657706304,1657706287,1657706328,false,450,1657706291,850,3,0
10,7,104,3,3,670,745,580,0,0,1657706329,1657706357,1657706369,40,12,4,4,15.51724137931,5,1657706340,1657706363,1657706328,true,620,1657706368,620,4,0.24242424242424
10,8,72,3,3,806,750,870,0,0,1657706369,1657706396,1657706402,33,6,5,4,7.3563218390805,5,1657706377,1657706363,1657706401,false,620,1657706368,870,4,0
10,9,146,3,3,1300,1175,1400,0,0,1657706402,1657706432,1657706437,35,5,5,4,7.1428571428571,5,1657706418,1657706363,1657706436,false,620,1657706368,1400,4,0
10,10,114,3,3,1340,1090,1100,0,0,1657706437,1657706458,1657706462,25,4,4,5,21.818181818182,5,1657706446,1657706363,1657706461,false,620,1657706368,1100,3,0
10,11,34,3,3,457,515,450,0,0,1657706462,1657706489,1657706495,33,6,5,4,1.5555555555556,5,1657706467,1657706363,1657706494,false,620,1657706368,450,5,0
10,12,164,3,3,1150,1180,1600,0,0,1657706495,1657706521,1657706526,31,5,6,5,28.125,4,1657706503,1657706363,1657706525,false,620,1657706368,1600,2,0
10,13,40,3,3,1950,1080,1100,0,0,1657706526,1657706542,1657706546,20,4,4,3,77.272727272727,4,1657706532,1657706363,1657706545,false,620,1657706368,1100,1,0
10,14,156,3,3,430,400,450,0,0,1657706546,1657706570,1657706575,29,5,5,4,4.4444444444444,4,1657706556,1657706363,1657706574,false,620,1657706368,450,4,0
10,15,167,3,3,580,540,500,0,0,1657706575,1657706588,1657706593,18,5,3,5,16,4,1657706580,1657706363,1657706592,false,620,1657706368,500,3,0
10,16,29,3,3,1415,1240,1200,0,0,1657706593,1657706623,1657706627,34,4,4,4,17.916666666667,4,1657706597,1657706363,1657706626,false,620,1657706368,1200,3,0
10,17,62,3,3,474,480,500,0,0,1657706627,1657706669,1657706672,45,3,4,4,5.2,4,1657706635,1657706363,1657706671,false,620,1657706368,500,4,0
10,18,115,3,3,405,460,400,0,0,1657706672,1657706705,1657706709,37,4,5,4,1.25,4,1657706678,1657706363,1657706708,false,620,1657706368,400,5,0
10,19,56,3,3,405,460,410,0,0,1657706709,1657706748,1657706752,43,4,4,4,1.219512195122,4,1657706713,1657706363,1657706751,false,620,1657706368,410,5,0
10,20,60,3,3,870,855,900,0,0,1657706752,1657706787,1657706790,38,3,4,4,3.3333333333333,4,1657706757,1657706363,1657706789,false,620,1657706368,900,4,0
10,21,33,3,3,980,890,870,0,0,1657706790,1657706836,1657706841,51,5,4,5,12.64367816092,4,1657706794,1657706363,1657706841,false,620,1657706368,870,4,0
10,22,107,3,3,790,755,700,0,0,1657706841,1657706881,1657706885,44,4,4,5,12.857142857143,4,1657706860,1657706363,1657706884,false,620,1657706368,700,4,0
10,23,130,3,3,875,980,900,0,0,1657706885,1657706910,1657706913,28,3,4,4,2.7777777777778,4,1657706892,1657706363,1657706912,false,620,1657706368,900,5,0
10,24,136,3,3,690,790,800,0,0,1657706913,1657706936,1657706939,26,3,4,4,13.75,4,1657706922,1657706363,1657706939,false,620,1657706368,800,3,0
10,25,144,3,3,329,400,350,0,0,1657706939,1657706952,1657706957,18,5,5,4,6,4,1657706944,1657706363,1657706956,false,620,1657706368,350,4,0
10,26,129,3,3,605,755,600,0,0,1657706957,1657706973,1657706977,20,4,6,4,0.83333333333333,4,1657706961,1657706363,1657706976,false,620,1657706368,600,5,0
10,27,195,3,3,1815,1260,1100,0,0,1657706977,1657707007,1657707010,33,3,4,4,65,3,1657706987,1657706363,1657707010,false,620,1657706368,1100,2,0
10,28,63,3,3,1300,1175,1200,0,0,1657707010,1657707030,1657707034,24,4,4,4,8.3333333333333,3,1657707016,1657706363,1657707034,false,620,1657706368,1200,4,0
10,29,117,3,3,560,670,680,0,0,1657707034,1657707048,1657707052,18,4,4,4,17.647058823529,3,1657707037,1657706363,1657707051,false,620,1657706368,680,3,0
