User,Trial,House,Condition,Phase,RentalPrice,Recommendation,Answer,AnswerMin,AnswerMax,StartTime,SaveTime,EndTime,Duration,"Reaction Time","Subjective Surprise",Confidence,Expectations,Trust,"Trust Save Time","Yes Time","No time",Change,"Second Estimation","Second Estimation Time","Final Estimation",Stars,"Weight of Advice"
5,0,170,3,1,460,465,0,0,0,1657625686,0,1657625712,26,0,0,0,0,0,0,0,0,0,0,0,0,0,0
5,1,45,3,1,870,870,0,0,0,1657625712,0,1657625721,9,0,0,0,0,0,0,0,0,0,0,0,0,0,0
5,2,139,3,1,490,455,0,0,0,1657625721,0,1657625728,7,0,0,0,0,0,0,0,0,0,0,0,0,0,0
5,3,119,3,1,750,720,0,0,0,1657625728,0,1657625739,11,0,0,0,0,0,0,0,0,0,0,0,0,0,0
5,4,152,3,1,515,590,0,0,0,1657625739,0,1657625752,13,0,0,0,0,0,0,0,0,0,0,0,0,0,0
5,5,64,3,1,930,1030,0,0,0,1657625752,0,1657625765,13,0,0,0,0,0,0,0,0,0,0,0,0,0,0
5,6,122,3,1,725,725,0,0,0,1657625765,0,1657625815,50,0,0,0,0,0,0,0,0,0,0,0,0,0,0
5,7,120,3,1,522,490,0,0,0,1657625815,0,1657625821,6,0,0,0,0,0,0,0,0,0,0,0,0,0,0
5,8,106,3,1,457,495,0,0,0,1657625821,0,1657625829,8,0,0,0,0,0,0,0,0,0,0,0,0,0,0
5,9,4,3,1,950,1060,0,0,0,1657625829,0,1657625837,8,0,0,0,0,0,0,0,0,0,0,0,0,0,0
5,10,163,3,1,450,410,0,0,0,1657625838,0,1657625851,13,0,0,0,0,0,0,0,0,0,0,0,0,0,0
5,11,44,3,1,750,745,0,0,0,1657625851,0,1657625854,3,0,0,0,0,0,0,0,0,0,0,0,0,0,0
5,12,196,3,1,650,675,0,0,0,1657625854,0,1657625868,14,0,0,0,0,0,0,0,0,0,0,0,0,0,0
5,13,137,3,1,659,570,0,0,0,1657625868,0,1657625891,23,0,0,0,0,0,0,0,0,0,0,0,0,0,0
5,14,175,3,1,500,505,0,0,0,1657625891,0,1657625894,3,0,0,0,0,0,0,0,0,0,0,0,0,0,0
5,15,19,3,1,400,375,0,0,0,1657625894,0,1657625899,5,0,0,0,0,0,0,0,0,0,0,0,0,0,0
5,16,10,3,1,700,660,0,0,0,1657625899,0,1657625901,2,0,0,0,0,0,0,0,0,0,0,0,0,0,0
5,17,181,3,1,789,720,0,0,0,1657625901,0,1657625906,5,0,0,0,0,0,0,0,0,0,0,0,0,0,0
5,18,75,3,1,994,1010,0,0,0,1657625906,0,1657625907,1,0,0,0,0,0,0,0,0,0,0,0,0,0,0
5,19,86,3,1,850,875,0,0,0,1657625907,0,1657625920,13,0,0,0,0,0,0,0,0,0,0,0,0,0,0
5,20,192,3,1,950,910,0,0,0,1657625920,0,1657625922,2,0,0,0,0,0,0,0,0,0,0,0,0,0,0
5,21,41,3,1,817,805,0,0,0,1657625922,0,1657625927,5,0,0,0,0,0,0,0,0,0,0,0,0,0,0
5,22,32,3,1,895,1005,0,0,0,1657625927,0,1657625934,7,0,0,0,0,0,0,0,0,0,0,0,0,0,0
5,23,98,3,1,790,910,0,0,0,1657625934,0,1657625937,3,0,0,0,0,0,0,0,0,0,0,0,0,0,0
5,24,58,3,1,490,530,0,0,0,1657625937,0,1657625945,8,0,0,0,0,0,0,0,0,0,0,0,0,0,0
5,25,147,3,1,420,430,0,0,0,1657625945,0,1657625949,4,0,0,0,0,0,0,0,0,0,0,0,0,0,0
5,26,157,3,1,585,540,0,0,0,1657625949,0,1657625959,10,0,0,0,0,0,0,0,0,0,0,0,0,0,0
5,27,105,3,1,716,715,0,0,0,1657625959,0,1657625961,2,0,0,0,0,0,0,0,0,0,0,0,0,0,0
5,28,3,3,1,640,650,0,0,0,1657625961,0,1657625964,3,0,0,0,0,0,0,0,0,0,0,0,0,0,0
5,29,8,3,1,720,745,0,0,0,1657625964,0,1657625965,1,0,0,0,0,0,0,0,0,0,0,0,0,0,0
5,0,65,3,2,450,450,0,485,515,1657625969,1657626001,1657626003,34,2,0,0,0,0,0,0,0,0,0,0,0,0,0
5,1,36,3,2,790,755,0,725,750,1657626003,1657626026,1657626028,25,2,0,0,0,0,0,0,0,0,0,0,0,0,0
5,2,124,3,2,430,505,0,515,540,1657626028,1657626039,1657626040,12,1,0,0,0,0,0,0,0,0,0,0,0,0,0
5,3,167,3,2,580,540,0,515,540,1657626040,1657626052,1657626054,14,2,0,0,0,0,0,0,0,0,0,0,0,0,0
5,4,100,3,2,895,895,0,840,880,1657626054,1657626075,1657626077,23,2,0,0,0,0,0,0,0,0,0,0,0,0,0
5,5,28,3,2,846,980,0,800,850,1657626077,1657626088,1657626089,12,1,0,0,0,0,0,0,0,0,0,0,0,0,0
5,6,110,3,2,758,755,0,725,750,1657626089,1657626104,1657626105,16,1,0,0,0,0,0,0,0,0,0,0,0,0,0
5,7,197,3,2,635,555,0,645,670,1657626105,1657626134,1657626135,30,1,0,0,0,0,0,0,0,0,0,0,0,0,0
5,8,155,3,2,450,435,0,485,505,1657626135,1657626147,1657626148,13,1,0,0,0,0,0,0,0,0,0,0,0,0,0
5,9,107,3,2,790,755,0,725,750,1657626148,1657626158,1657626159,11,1,0,0,0,0,0,0,0,0,0,0,0,0,0
5,0,107,3,3,790,755,750,0,0,1657626266,1657626288,1657626308,42,20,1,6,5.3333333333333,0,0,0,1657626307,false,-1,0,750,4,0
5,1,84,3,3,1385,910,850,0,0,1657626308,1657626338,1657626356,48,18,4,5,62.941176470588,0,1657626324,1657626348,1657626307,true,900,1657626355,900,2,0.83333333333333
5,2,34,3,3,457,515,550,0,0,1657626356,1657626399,1657626411,55,12,5,5,16.909090909091,3,1657626380,1657626348,1657626410,false,900,1657626355,550,3,0
5,3,117,3,3,560,670,725,0,0,1657626411,1657626436,1657626452,41,16,5,4,22.758620689655,3,1657626421,1657626348,1657626451,false,900,1657626355,725,2,0
5,4,176,3,3,390,390,425,0,0,1657626452,1657626485,1657626500,48,15,5,1,8.2352941176471,3,1657626468,1657626492,1657626451,true,400,1657626499,400,5,0.71428571428571
5,5,167,3,3,580,540,525,0,0,1657626500,1657626524,1657626538,38,14,3,5,10.47619047619,3,1657626513,1657626533,1657626537,false,400,1657626499,525,4,0
5,6,187,3,3,1550,1295,1100,0,0,1657626538,1657626561,1657626579,41,18,5,1,40.909090909091,3,1657626543,1657626571,1657626537,true,1150,1657626578,1150,2,0.25641025641026
5,7,164,3,3,1150,1180,1500,0,0,1657626579,1657626604,1657626612,33,8,7,4,23.333333333333,4,1657626593,1657626571,1657626611,false,1150,1657626578,1500,2,0
5,8,5,3,3,791,595,670,0,0,1657626612,1657626632,1657626654,42,22,5,1,18.059701492537,4,1657626617,1657626640,1657626611,true,630,1657626647,630,3,0.53333333333333
5,9,63,3,3,1300,1175,1000,0,0,1657626654,1657626714,1657626722,68,8,5,1,30,4,1657626661,1657626640,1657626721,false,630,1657626647,1000,3,0
5,10,72,3,3,806,750,700,0,0,1657626722,1657626740,1657626746,24,6,5,4,15.142857142857,4,1657626725,1657626640,1657626745,false,630,1657626647,700,3,0
5,11,62,3,3,474,480,515,0,0,1657626746,1657626764,1657626773,27,9,6,7,7.9611650485437,4,1657626750,1657626640,1657626772,false,630,1657626647,515,4,0
5,12,195,3,3,1815,1260,1180,0,0,1657626773,1657626804,1657626817,44,13,5,7,53.813559322034,5,1657626786,1657626811,1657626772,true,1260,1657626816,1260,2,1
5,13,146,3,3,1300,1175,1000,0,0,1657626817,1657626829,1657626841,24,12,4,7,30,5,1657626822,1657626835,1657626772,true,1175,1657626839,1175,4,1
5,14,129,3,3,605,755,750,0,0,1657626841,1657626852,1657626860,19,8,1,7,19.333333333333,5,1657626845,1657626835,1657626859,false,1175,1657626839,750,3,0
5,15,104,3,3,670,745,750,0,0,1657626860,1657626872,1657626880,20,8,1,7,10.666666666667,5,1657626864,1657626835,1657626877,false,1175,1657626839,750,4,0
5,16,33,3,3,980,890,800,0,0,1657626880,1657626891,1657626908,28,17,4,5,22.5,5,1657626882,1657626900,1657626877,true,850,1657626907,850,3,0.55555555555556
5,17,56,3,3,405,460,500,0,0,1657626908,1657626926,1657626947,39,21,5,7,19,6,1657626914,1657626942,1657626877,true,480,1657626946,480,3,0.5
5,18,115,3,3,405,460,440,0,0,1657626947,1657626965,1657626971,24,6,5,7,7.9545454545455,6,1657626950,1657626942,1657626970,false,480,1657626946,440,4,0
5,19,130,3,3,875,980,950,0,0,1657626971,1657626983,1657626996,25,13,5,6,7.8947368421053,6,1657626973,1657626992,1657626970,true,980,1657626995,980,4,1
5,20,40,3,3,1950,1080,1300,0,0,1657626996,1657627024,1657627032,36,8,7,7,50,6,1657627001,1657626992,1657627031,false,980,1657626995,1300,2,0
5,21,29,3,3,1415,1240,1500,0,0,1657627032,1657627046,1657627051,19,5,7,4,5.6666666666667,6,1657627035,1657626992,1657627050,false,980,1657626995,1500,4,0
5,22,113,3,3,750,790,800,0,0,1657627051,1657627075,1657627079,28,4,4,7,6.25,4,1657627064,1657626992,1657627078,false,980,1657626995,800,4,0
5,23,114,3,3,1340,1090,950,0,0,1657627079,1657627096,1657627106,27,10,5,5,41.052631578947,4,1657627083,1657627102,1657627078,true,1000,1657627104,1000,2,0.35714285714286
5,24,136,3,3,690,790,800,0,0,1657627106,1657627135,1657627141,35,6,4,4,13.75,4,1657627108,1657627102,1657627140,false,1000,1657627104,800,3,0
5,25,110,3,3,758,755,750,0,0,1657627141,1657627151,1657627159,18,8,1,7,1.0666666666667,4,1657627144,1657627102,1657627158,false,1000,1657627104,750,5,0
5,26,156,3,3,430,400,515,0,0,1657627159,1657627177,1657627196,37,19,7,7,16.504854368932,4,1657627163,1657627188,1657627158,true,470,1657627195,470,4,0.39130434782609
5,28,60,3,3,870,855,800,0,0,1657627225,1657627241,1657627256,31,15,5,5,8.75,5,1657627228,1657627250,1657627224,true,855,1657627255,855,5,1
5,29,36,3,3,790,755,750,0,0,1657627256,1657627271,1657627283,27,12,1,5,5.3333333333333,5,1657627261,1657627278,1657627224,true,755,1657627282,755,4,1
