User,Trial,House,Condition,Phase,RentalPrice,Recommendation,Answer,AnswerMin,AnswerMax,StartTime,SaveTime,EndTime,Duration,"Reaction Time","Subjective Surprise",Confidence,Expectations,Trust,"Trust Save Time","Yes Time","No time",Change,"Second Estimation","Second Estimation Time","Final Estimation",Stars,"Weight of Advice"
1,0,137,3,1,659,665,0,0,0,1659074439,0,1659074475,36,0,0,0,0,0,0,0,0,0,0,0,0,0,0
1,1,75,3,1,994,970,0,0,0,1659074476,0,1659074495,19,0,0,0,0,0,0,0,0,0,0,0,0,0,0
1,2,44,3,1,750,780,0,0,0,1659074496,0,1659074513,17,0,0,0,0,0,0,0,0,0,0,0,0,0,0
1,3,58,3,1,490,480,0,0,0,1659074516,0,1659074533,17,0,0,0,0,0,0,0,0,0,0,0,0,0,0
1,4,122,3,1,725,715,0,0,0,1659074536,0,1659074557,21,0,0,0,0,0,0,0,0,0,0,0,0,0,0
1,5,41,3,1,817,810,0,0,0,1659074559,0,1659074577,18,0,0,0,0,0,0,0,0,0,0,0,0,0,0
1,6,4,3,1,950,950,0,0,0,1659074579,0,1659074599,20,0,0,0,0,0,0,0,0,0,0,0,0,0,0
1,7,19,3,1,400,405,0,0,0,1659074602,0,1659074654,52,0,0,0,0,0,0,0,0,0,0,0,0,0,0
1,8,64,3,1,930,970,0,0,0,1659074655,0,1659074681,26,0,0,0,0,0,0,0,0,0,0,0,0,0,0
1,9,98,3,1,790,780,0,0,0,1659074682,0,1659074691,9,0,0,0,0,0,0,0,0,0,0,0,0,0,0
1,10,86,3,1,850,890,0,0,0,1659074692,0,1659074708,16,0,0,0,0,0,0,0,0,0,0,0,0,0,0
1,11,45,3,1,870,890,0,0,0,1659074709,0,1659074731,22,0,0,0,0,0,0,0,0,0,0,0,0,0,0
1,12,170,3,1,460,440,0,0,0,1659074732,0,1659074739,7,0,0,0,0,0,0,0,0,0,0,0,0,0,0
1,13,106,3,1,457,470,0,0,0,1659074741,0,1659074763,22,0,0,0,0,0,0,0,0,0,0,0,0,0,0
1,14,8,3,1,720,730,0,0,0,1659074766,0,1659074771,5,0,0,0,0,0,0,0,0,0,0,0,0,0,0
1,15,175,3,1,500,490,0,0,0,1659074772,0,1659074782,10,0,0,0,0,0,0,0,0,0,0,0,0,0,0
1,16,163,3,1,450,450,0,0,0,1659074782,0,1659074798,16,0,0,0,0,0,0,0,0,0,0,0,0,0,0
1,17,192,3,1,950,915,0,0,0,1659074800,0,1659074815,15,0,0,0,0,0,0,0,0,0,0,0,0,0,0
1,18,32,3,1,895,880,0,0,0,1659074818,0,1659074844,26,0,0,0,0,0,0,0,0,0,0,0,0,0,0
1,19,185,3,1,1200,905,0,0,0,1659074845,0,1659074859,14,0,0,0,0,0,0,0,0,0,0,0,0,0,0
1,20,119,3,1,750,725,0,0,0,1659074860,0,1659074874,14,0,0,0,0,0,0,0,0,0,0,0,0,0,0
1,21,147,3,1,420,415,0,0,0,1659074874,0,1659074892,18,0,0,0,0,0,0,0,0,0,0,0,0,0,0
1,22,10,3,1,700,700,0,0,0,1659074893,0,1659074899,6,0,0,0,0,0,0,0,0,0,0,0,0,0,0
1,23,139,3,1,490,490,0,0,0,1659074899,0,1659074905,6,0,0,0,0,0,0,0,0,0,0,0,0,0,0
1,24,157,3,1,585,600,0,0,0,1659074905,0,1659074913,8,0,0,0,0,0,0,0,0,0,0,0,0,0,0
1,25,152,3,1,515,530,0,0,0,1659074914,0,1659074928,14,0,0,0,0,0,0,0,0,0,0,0,0,0,0
1,26,181,3,1,789,805,0,0,0,1659074928,0,1659074938,10,0,0,0,0,0,0,0,0,0,0,0,0,0,0
1,27,105,3,1,716,745,0,0,0,1659074938,0,1659074949,11,0,0,0,0,0,0,0,0,0,0,0,0,0,0
1,28,196,3,1,650,665,0,0,0,1659074950,0,1659074988,38,0,0,0,0,0,0,0,0,0,0,0,0,0,0
1,29,3,3,1,640,645,0,0,0,1659074990,0,1659074995,5,0,0,0,0,0,0,0,0,0,0,0,0,0,0
1,0,46,3,2,480,515,0,450,550,1659075010,1659075034,1659075036,26,2,0,0,0,0,0,0,0,0,0,0,0,0,0
1,1,159,3,2,775,810,0,700,750,1659075038,1659075063,1659075064,26,1,0,0,0,0,0,0,0,0,0,0,0,0,0
1,2,120,3,2,522,510,0,470,540,1659075066,1659075085,1659075086,20,1,0,0,0,0,0,0,0,0,0,0,0,0,0
1,3,67,3,2,570,595,0,470,560,1659075089,1659075112,1659075117,28,5,0,0,0,0,0,0,0,0,0,0,0,0,0
1,4,155,3,2,450,460,0,420,480,1659075119,1659075137,1659075138,19,1,0,0,0,0,0,0,0,0,0,0,0,0,0
1,5,124,3,2,430,445,0,500,600,1659075141,1659075153,1659075153,12,0,0,0,0,0,0,0,0,0,0,0,0,0,0
1,6,100,3,2,895,870,0,800,920,1659075158,1659075195,1659075196,38,1,0,0,0,0,0,0,0,0,0,0,0,0,0
1,7,65,3,2,450,440,0,410,480,1659075198,1659075213,1659075214,16,1,0,0,0,0,0,0,0,0,0,0,0,0,0
1,8,189,3,2,420,405,0,450,500,1659075216,1659075233,1659075234,18,1,0,0,0,0,0,0,0,0,0,0,0,0,0
1,9,28,3,2,846,865,0,850,1000,1659075236,1659075253,1659075254,18,1,0,0,0,0,0,0,0,0,0,0,0,0,0
1,0,110,3,3,758,770,650,0,0,1659075358,1659075384,1659075399,41,15,5,6,16.615384615385,0,0,0,1659075398,false,-1,0,650,4,0
1,1,167,3,3,580,570,550,0,0,1659075400,1659075442,1659075453,53,11,1,7,5.4545454545455,0,1659075410,0,1659075451,false,-1,0,550,4,0
1,2,117,3,3,560,700,700,0,0,1659075453,1659075500,1659075508,55,8,1,5,20,6,1659075478,0,1659075507,false,-1,0,700,3,0
1,3,40,3,3,1950,1030,1300,0,0,1659075509,1659075539,1659075548,39,9,7,6,50,6,1659075521,0,1659075546,false,-1,0,1300,2,0
1,4,115,3,3,405,385,480,0,0,1659075549,1659075580,1659075591,42,11,6,6,15.625,6,1659075555,0,1659075589,false,-1,0,480,3,0
1,5,146,3,3,1300,1060,1200,0,0,1659075591,1659075621,1659075640,49,19,5,6,8.3333333333333,6,1659075603,0,1659075639,false,-1,0,1200,4,0
1,6,72,3,3,806,835,850,0,0,1659075641,1659075670,1659075683,42,13,1,3,5.1764705882353,6,1659075646,0,1659075682,false,-1,0,850,4,0
1,7,62,3,3,474,495,470,0,0,1659075684,1659075721,1659075735,51,14,3,5,0.85106382978723,5,1659075696,1659075729,1659075682,true,490,1659075734,490,5,0.8
1,8,114,3,3,1340,980,900,0,0,1659075735,1659075758,1659075776,41,18,5,5,48.888888888889,5,1659075742,1659075771,1659075682,true,940,1659075775,940,3,0.5
1,9,176,3,3,390,450,390,0,0,1659075778,1659075795,1659075806,28,11,7,7,0,5,1659075783,1659075771,1659075805,false,940,1659075775,390,5,0
1,10,164,3,3,1150,1200,2200,0,0,1659075809,1659075843,1659075849,40,6,7,7,47.727272727273,5,1659075814,1659075771,1659075847,false,940,1659075775,2200,1,0
1,11,113,3,3,750,820,720,0,0,1659075850,1659075886,1659075907,57,21,5,3,4.1666666666667,5,1659075871,1659075897,1659075847,true,770,1659075906,770,5,0.5
1,12,136,3,3,690,790,700,0,0,1659075909,1659075931,1659075943,34,12,4,6,1.4285714285714,5,1659075917,1659075938,1659075847,true,730,1659075941,730,4,0.33333333333333
1,13,34,3,3,457,550,600,0,0,1659075944,1659075958,1659075978,34,20,5,5,23.833333333333,5,1659075948,1659075973,1659075847,true,580,1659075977,580,3,0.4
1,14,195,3,3,1815,1155,1200,0,0,1659075979,1659076007,1659076026,47,19,1,1,51.25,5,1659075982,1659076016,1659075847,true,1500,1659076025,1500,4,6.6666666666667
1,15,104,3,3,670,735,800,0,0,1659076028,1659076046,1659076062,34,16,1,1,16.25,5,1659076031,1659076016,1659076062,false,1500,1659076025,800,3,0
1,16,5,3,3,791,685,730,0,0,1659076064,1659076083,1659076105,41,22,3,7,8.3561643835616,5,1659076066,1659076016,1659076104,false,1500,1659076025,730,4,0
1,17,84,3,3,1385,945,1000,0,0,1659076105,1659076146,1659076160,55,14,3,6,38.5,5,1659076123,1659076154,1659076104,true,1100,1659076157,1100,3,1.8181818181818
1,18,144,3,3,329,615,400,0,0,1659076161,1659076173,1659076183,22,10,7,3,17.75,5,1659076163,1659076154,1659076182,false,1100,1659076157,400,3,0
1,19,29,3,3,1415,1125,1500,0,0,1659076184,1659076205,1659076212,28,7,7,6,5.6666666666667,5,1659076190,1659076154,1659076211,false,1100,1659076157,1500,4,0
1,20,33,3,3,980,840,850,0,0,1659076215,1659076245,1659076250,35,5,1,1,15.294117647059,5,1659076219,1659076154,1659076249,false,1100,1659076157,850,4,0
1,21,130,3,3,875,960,900,0,0,1659076252,1659076263,1659076287,35,24,2,4,2.7777777777778,5,1659076254,1659076279,1659076249,true,940,1659076285,940,4,0.66666666666667
1,22,36,3,3,790,815,760,0,0,1659076291,1659076325,1659076346,55,21,2,3,3.9473684210526,4,1659076308,1659076339,1659076249,true,780,1659076345,780,5,0.36363636363636
1,23,129,3,3,605,775,650,0,0,1659076351,1659076369,1659076388,37,19,2,6,6.9230769230769,4,1659076353,1659076378,1659076249,true,700,1659076387,700,4,0.4
1,24,60,3,3,870,900,800,0,0,1659076390,1659076405,1659076412,22,7,6,5,8.75,4,1659076392,1659076378,1659076411,false,700,1659076387,800,4,0
1,25,156,3,3,430,580,420,0,0,1659076414,1659076436,1659076442,28,6,7,6,2.3809523809524,4,1659076424,1659076378,1659076441,false,700,1659076387,420,5,0
1,26,197,3,3,635,650,740,0,0,1659076447,1659076465,1659076490,43,25,3,1,14.189189189189,4,1659076449,1659076479,1659076441,true,690,1659076488,690,4,0.55555555555556
1,27,56,3,3,405,630,420,0,0,1659076492,1659076521,1659076526,34,5,7,5,3.5714285714286,4,1659076502,1659076479,1659076526,false,690,1659076488,420,5,0
1,28,187,3,3,1550,1265,1100,0,0,1659076527,1659076541,1659076560,33,19,3,6,40.909090909091,4,1659076529,1659076555,1659076526,true,1200,1659076559,1200,3,0.60606060606061
1,29,63,3,3,1300,1120,1500,0,0,1659076563,1659076582,1659076586,23,4,7,6,13.333333333333,4,1659076565,1659076555,1659076586,false,1200,1659076559,1500,4,0
5,0,137,3,1,659,665,0,0,0,1659082705,0,1659082748,43,0,0,0,0,0,0,0,0,0,0,0,0,0,0
5,1,58,3,1,490,480,0,0,0,1659082748,0,1659082771,23,0,0,0,0,0,0,0,0,0,0,0,0,0,0
5,2,10,3,1,700,700,0,0,0,1659082772,0,1659082813,41,0,0,0,0,0,0,0,0,0,0,0,0,0,0
5,3,86,3,1,850,890,0,0,0,1659082814,0,1659082853,39,0,0,0,0,0,0,0,0,0,0,0,0,0,0
5,4,8,3,1,720,730,0,0,0,1659082853,0,1659082871,18,0,0,0,0,0,0,0,0,0,0,0,0,0,0
5,5,185,3,1,1200,905,0,0,0,1659082871,0,1659082896,25,0,0,0,0,0,0,0,0,0,0,0,0,0,0
5,6,32,3,1,895,880,0,0,0,1659082896,0,1659082926,30,0,0,0,0,0,0,0,0,0,0,0,0,0,0
5,7,152,3,1,515,530,0,0,0,1659082927,0,1659082950,23,0,0,0,0,0,0,0,0,0,0,0,0,0,0
5,8,75,3,1,994,970,0,0,0,1659082950,0,1659082997,47,0,0,0,0,0,0,0,0,0,0,0,0,0,0
5,9,181,3,1,789,805,0,0,0,1659082997,0,1659083019,22,0,0,0,0,0,0,0,0,0,0,0,0,0,0
5,10,192,3,1,950,915,0,0,0,1659083019,0,1659083044,25,0,0,0,0,0,0,0,0,0,0,0,0,0,0
5,11,147,3,1,420,415,0,0,0,1659083044,0,1659083056,12,0,0,0,0,0,0,0,0,0,0,0,0,0,0
5,12,44,3,1,750,780,0,0,0,1659083057,0,1659083071,14,0,0,0,0,0,0,0,0,0,0,0,0,0,0
5,13,175,3,1,500,490,0,0,0,1659083071,0,1659083079,8,0,0,0,0,0,0,0,0,0,0,0,0,0,0
5,14,98,3,1,790,780,0,0,0,1659083079,0,1659083101,22,0,0,0,0,0,0,0,0,0,0,0,0,0,0
5,15,170,3,1,460,440,0,0,0,1659083101,0,1659083116,15,0,0,0,0,0,0,0,0,0,0,0,0,0,0
5,16,119,3,1,750,725,0,0,0,1659083116,0,1659083152,36,0,0,0,0,0,0,0,0,0,0,0,0,0,0
5,17,45,3,1,870,890,0,0,0,1659083153,0,1659083210,57,0,0,0,0,0,0,0,0,0,0,0,0,0,0
5,18,163,3,1,450,450,0,0,0,1659083210,0,1659083234,24,0,0,0,0,0,0,0,0,0,0,0,0,0,0
5,19,139,3,1,490,490,0,0,0,1659083234,0,1659083252,18,0,0,0,0,0,0,0,0,0,0,0,0,0,0
5,20,122,3,1,725,715,0,0,0,1659083252,0,1659083278,26,0,0,0,0,0,0,0,0,0,0,0,0,0,0
5,21,3,3,1,640,645,0,0,0,1659083278,0,1659083299,21,0,0,0,0,0,0,0,0,0,0,0,0,0,0
5,22,41,3,1,817,810,0,0,0,1659083299,0,1659083317,18,0,0,0,0,0,0,0,0,0,0,0,0,0,0
5,23,4,3,1,950,950,0,0,0,1659083317,0,1659083337,20,0,0,0,0,0,0,0,0,0,0,0,0,0,0
5,24,19,3,1,400,405,0,0,0,1659083337,0,1659083362,25,0,0,0,0,0,0,0,0,0,0,0,0,0,0
5,25,106,3,1,457,470,0,0,0,1659083362,0,1659083385,23,0,0,0,0,0,0,0,0,0,0,0,0,0,0
5,26,64,3,1,930,970,0,0,0,1659083385,0,1659083402,17,0,0,0,0,0,0,0,0,0,0,0,0,0,0
5,27,105,3,1,716,745,0,0,0,1659083402,0,1659083423,21,0,0,0,0,0,0,0,0,0,0,0,0,0,0
5,28,196,3,1,650,665,0,0,0,1659083423,0,1659083442,19,0,0,0,0,0,0,0,0,0,0,0,0,0,0
5,29,157,3,1,585,600,0,0,0,1659083442,0,1659083463,21,0,0,0,0,0,0,0,0,0,0,0,0,0,0
5,0,155,3,2,450,460,0,400,450,1659083479,1659083516,1659083522,43,6,0,0,0,0,0,0,0,0,0,0,0,0,0
5,1,28,3,2,846,865,0,700,780,1659083523,1659083556,1659083557,34,1,0,0,0,0,0,0,0,0,0,0,0,0,0
5,2,67,3,2,570,595,0,500,540,1659083557,1659083586,1659083588,31,2,0,0,0,0,0,0,0,0,0,0,0,0,0
5,3,124,3,2,430,445,0,450,480,1659083589,1659083606,1659083608,19,2,0,0,0,0,0,0,0,0,0,0,0,0,0
5,4,46,3,2,480,515,0,400,420,1659083608,1659083630,1659083632,24,2,0,0,0,0,0,0,0,0,0,0,0,0,0
5,5,120,3,2,522,510,0,420,450,1659083632,1659083653,1659083655,23,2,0,0,0,0,0,0,0,0,0,0,0,0,0
5,6,65,3,2,450,440,0,400,430,1659083655,1659083674,1659083676,21,2,0,0,0,0,0,0,0,0,0,0,0,0,0
5,7,100,3,2,895,870,0,500,560,1659083676,1659083702,1659083703,27,1,0,0,0,0,0,0,0,0,0,0,0,0,0
5,8,189,3,2,420,405,0,400,425,1659083704,1659083723,1659083724,20,1,0,0,0,0,0,0,0,0,0,0,0,0,0
5,9,159,3,2,775,810,0,650,690,1659083725,1659083757,1659083759,34,2,0,0,0,0,0,0,0,0,0,0,0,0,0
5,0,110,3,3,758,770,720,0,0,1659083822,1659083884,1659083921,99,37,3,7,5.2777777777778,0,0,0,1659083919,false,-1,0,720,4,0
5,1,167,3,3,580,570,515,0,0,1659083922,1659083982,1659084001,79,19,3,7,12.621359223301,0,1659083945,0,1659084000,false,-1,0,515,4,0
5,2,176,3,3,390,450,490,0,0,1659084002,1659084067,1659084115,113,48,5,7,20.408163265306,6,1659084024,1659084090,1659084087,true,475,1659084113,475,3,0.375
5,3,113,3,3,750,820,530,0,0,1659084115,1659084168,1659084198,83,30,6,7,41.509433962264,6,1659084132,1659084180,1659084087,true,680,1659084193,680,4,0.51724137931034
5,4,130,3,3,875,960,690,0,0,1659084199,1659084260,1659084296,97,36,6,7,26.811594202899,6,1659084229,1659084283,1659084087,true,855,1659084294,855,5,0.61111111111111
5,5,187,3,3,1550,1265,982,0,0,1659084296,1659084336,1659084359,63,23,5,7,57.841140529532,6,1659084307,1659084344,1659084087,true,1120,1659084357,1120,3,0.48763250883392
5,6,29,3,3,1415,1125,980,0,0,1659084359,1659084391,1659084407,48,16,3,4,44.387755102041,6,1659084363,1659084397,1659084087,true,1000,1659084406,1000,3,0.13793103448276
5,7,136,3,3,690,790,870,0,0,1659084408,1659084451,1659084466,58,15,3,4,20.689655172414,5,1659084428,1659084459,1659084087,true,820,1659084464,820,3,0.625
5,8,129,3,3,605,775,560,0,0,1659084466,1659084495,1659084507,41,12,6,3,8.0357142857143,5,1659084470,1659084501,1659084087,true,620,1659084506,620,5,0.27906976744186
5,9,164,3,3,1150,1200,1100,0,0,1659084508,1659084552,1659084558,50,6,1,7,4.5454545454545,5,1659084525,1659084501,1659084557,false,620,1659084506,1100,4,0
5,10,72,3,3,806,835,830,0,0,1659084559,1659084594,1659084601,42,7,1,7,2.8915662650602,5,1659084565,1659084501,1659084600,false,620,1659084506,830,5,0
5,11,5,3,3,791,685,680,0,0,1659084602,1659084626,1659084634,32,8,1,7,16.323529411765,5,1659084605,1659084501,1659084633,false,620,1659084506,680,4,0
5,12,60,3,3,870,900,750,0,0,1659084634,1659084680,1659084697,63,17,3,7,16,5,1659084647,1659084686,1659084633,true,820,1659084692,820,4,0.46666666666667
5,13,115,3,3,405,385,420,0,0,1659084698,1659084732,1659084745,47,13,2,7,3.5714285714286,5,1659084709,1659084686,1659084739,false,820,1659084692,420,5,0
5,14,36,3,3,790,815,530,0,0,1659084745,1659084775,1659084805,60,30,5,7,49.056603773585,5,1659084754,1659084784,1659084739,true,720,1659084803,720,4,0.66666666666667
5,15,62,3,3,474,495,585,0,0,1659084806,1659084836,1659084848,42,12,3,7,18.974358974359,5,1659084811,1659084784,1659084843,false,720,1659084803,585,3,0
5,16,104,3,3,670,735,600,0,0,1659084848,1659084866,1659084873,25,7,3,7,11.666666666667,5,1659084855,1659084784,1659084871,false,720,1659084803,600,4,0
5,17,33,3,3,980,840,870,0,0,1659084873,1659084908,1659084915,42,7,1,7,12.64367816092,5,1659084892,1659084784,1659084913,false,720,1659084803,870,4,0
5,18,195,3,3,1815,1155,1600,0,0,1659084915,1659084943,1659084951,36,8,5,7,13.4375,5,1659084920,1659084784,1659084949,false,720,1659084803,1600,4,0
5,19,114,3,3,1340,980,900,0,0,1659084951,1659084982,1659084987,36,5,2,7,48.888888888889,5,1659084958,1659084784,1659084985,false,720,1659084803,900,2,0
5,20,117,3,3,560,700,640,0,0,1659084988,1659085011,1659085018,30,7,2,7,12.5,5,1659084992,1659084784,1659085016,false,720,1659084803,640,4,0
5,21,84,3,3,1385,945,980,0,0,1659085018,1659085056,1659085065,47,9,1,7,41.326530612245,5,1659085023,1659084784,1659085063,false,720,1659084803,980,3,0
5,22,146,3,3,1300,1060,1530,0,0,1659085065,1659085109,1659085115,50,6,3,7,15.032679738562,5,1659085083,1659084784,1659085113,false,720,1659084803,1530,4,0
5,23,40,3,3,1950,1030,1100,0,0,1659085115,1659085146,1659085157,42,11,1,7,77.272727272727,5,1659085119,1659084784,1659085155,false,720,1659084803,1100,2,0
5,24,63,3,3,1300,1120,1300,0,0,1659085157,1659085193,1659085199,42,6,2,7,0,5,1659085164,1659084784,1659085197,false,720,1659084803,1300,5,0
5,25,144,3,3,329,615,320,0,0,1659085199,1659085225,1659085245,46,20,6,7,2.8125,5,1659085211,1659085238,1659085197,true,380,1659085244,380,4,0.20338983050847
5,26,156,3,3,430,580,390,0,0,1659085245,1659085269,1659085280,35,11,7,7,10.25641025641,5,1659085256,1659085238,1659085275,false,380,1659085244,390,4,0
5,27,56,3,3,405,630,340,0,0,1659085281,1659085309,1659085316,35,7,6,7,19.117647058824,4,1659085292,1659085238,1659085314,false,380,1659085244,340,4,0
5,28,34,3,3,457,550,490,0,0,1659085316,1659085335,1659085344,28,9,4,7,6.734693877551,4,1659085321,1659085238,1659085340,false,380,1659085244,490,4,0
5,29,197,3,3,635,650,510,0,0,1659085344,1659085381,1659085387,43,6,3,5,24.509803921569,4,1659085351,1659085238,1659085385,false,380,1659085244,510,3,0
8,0,122,3,1,725,715,0,0,0,1659087319,0,1659087324,5,0,0,0,0,0,0,0,0,0,0,0,0,0,0
8,1,185,3,1,1200,905,0,0,0,1659087324,0,1659087327,3,0,0,0,0,0,0,0,0,0,0,0,0,0,0
8,2,41,3,1,817,810,0,0,0,1659087327,0,1659087328,1,0,0,0,0,0,0,0,0,0,0,0,0,0,0
8,3,106,3,1,457,470,0,0,0,1659087328,0,1659087329,1,0,0,0,0,0,0,0,0,0,0,0,0,0,0
8,4,175,3,1,500,490,0,0,0,1659087329,0,1659087330,1,0,0,0,0,0,0,0,0,0,0,0,0,0,0
8,5,119,3,1,750,725,0,0,0,1659087330,0,1659087330,0,0,0,0,0,0,0,0,0,0,0,0,0,0,0
8,6,64,3,1,930,970,0,0,0,1659087330,0,1659087331,1,0,0,0,0,0,0,0,0,0,0,0,0,0,0
8,7,163,3,1,450,450,0,0,0,1659087331,0,1659087332,1,0,0,0,0,0,0,0,0,0,0,0,0,0,0
8,8,45,3,1,870,890,0,0,0,1659087332,0,1659087333,1,0,0,0,0,0,0,0,0,0,0,0,0,0,0
8,9,152,3,1,515,530,0,0,0,1659087333,0,1659087333,0,0,0,0,0,0,0,0,0,0,0,0,0,0,0
8,10,170,3,1,460,440,0,0,0,1659087334,0,1659087334,0,0,0,0,0,0,0,0,0,0,0,0,0,0,0
8,11,157,3,1,585,600,0,0,0,1659087334,0,1659087335,1,0,0,0,0,0,0,0,0,0,0,0,0,0,0
8,12,75,3,1,994,970,0,0,0,1659087335,0,1659087336,1,0,0,0,0,0,0,0,0,0,0,0,0,0,0
8,13,137,3,1,659,665,0,0,0,1659087336,0,1659087336,0,0,0,0,0,0,0,0,0,0,0,0,0,0,0
8,14,181,3,1,789,805,0,0,0,1659087337,0,1659087337,0,0,0,0,0,0,0,0,0,0,0,0,0,0,0
8,15,139,3,1,490,490,0,0,0,1659087337,0,1659087338,1,0,0,0,0,0,0,0,0,0,0,0,0,0,0
8,16,105,3,1,716,745,0,0,0,1659087338,0,1659087339,1,0,0,0,0,0,0,0,0,0,0,0,0,0,0
8,17,4,3,1,950,950,0,0,0,1659087339,0,1659087340,1,0,0,0,0,0,0,0,0,0,0,0,0,0,0
8,18,86,3,1,850,890,0,0,0,1659087340,0,1659087340,0,0,0,0,0,0,0,0,0,0,0,0,0,0,0
8,19,8,3,1,720,730,0,0,0,1659087340,0,1659087341,1,0,0,0,0,0,0,0,0,0,0,0,0,0,0
8,20,192,3,1,950,915,0,0,0,1659087341,0,1659087342,1,0,0,0,0,0,0,0,0,0,0,0,0,0,0
8,21,196,3,1,650,665,0,0,0,1659087342,0,1659087342,0,0,0,0,0,0,0,0,0,0,0,0,0,0,0
8,22,32,3,1,895,880,0,0,0,1659087342,0,1659087343,1,0,0,0,0,0,0,0,0,0,0,0,0,0,0
8,23,19,3,1,400,405,0,0,0,1659087343,0,1659087344,1,0,0,0,0,0,0,0,0,0,0,0,0,0,0
8,24,147,3,1,420,415,0,0,0,1659087344,0,1659087345,1,0,0,0,0,0,0,0,0,0,0,0,0,0,0
8,25,44,3,1,750,780,0,0,0,1659087345,0,1659087345,0,0,0,0,0,0,0,0,0,0,0,0,0,0,0
8,26,58,3,1,490,480,0,0,0,1659087346,0,1659087346,0,0,0,0,0,0,0,0,0,0,0,0,0,0,0
8,27,98,3,1,790,780,0,0,0,1659087346,0,1659087347,1,0,0,0,0,0,0,0,0,0,0,0,0,0,0
8,28,10,3,1,700,700,0,0,0,1659087347,0,1659087348,1,0,0,0,0,0,0,0,0,0,0,0,0,0,0
8,29,3,3,1,640,645,0,0,0,1659087348,0,1659087350,2,0,0,0,0,0,0,0,0,0,0,0,0,0,0
8,0,120,3,2,522,510,0,50,200,1659087352,1659087367,1659087369,17,2,0,0,0,0,0,0,0,0,0,0,0,0,0
8,1,65,3,2,450,440,0,50,200,1659087369,1659087374,1659087375,6,1,0,0,0,0,0,0,0,0,0,0,0,0,0
8,2,28,3,2,846,865,0,50,200,1659087375,1659087380,1659087381,6,1,0,0,0,0,0,0,0,0,0,0,0,0,0
8,3,124,3,2,430,445,0,50,200,1659087381,1659087386,1659087387,6,1,0,0,0,0,0,0,0,0,0,0,0,0,0
8,4,100,3,2,895,870,0,50,200,1659087387,1659087392,1659087393,6,1,0,0,0,0,0,0,0,0,0,0,0,0,0
8,5,189,3,2,420,405,0,50,200,1659087393,1659087398,1659087399,6,1,0,0,0,0,0,0,0,0,0,0,0,0,0
8,6,46,3,2,480,515,0,50,200,1659087399,1659087403,1659087404,5,1,0,0,0,0,0,0,0,0,0,0,0,0,0
8,7,159,3,2,775,810,0,50,200,1659087404,1659087409,1659087410,6,1,0,0,0,0,0,0,0,0,0,0,0,0,0
8,8,67,3,2,570,595,0,50,200,1659087410,1659087414,1659087415,5,1,0,0,0,0,0,0,0,0,0,0,0,0,0
8,9,155,3,2,450,460,0,100,300,1659087415,1659087422,1659087422,7,0,0,0,0,0,0,0,0,0,0,0,0,0,0
8,0,110,3,3,758,770,100,0,0,1659087424,1659087441,1659087454,30,13,5,4,658,0,0,1659087450,0,true,500,1659087453,500,2,0.59701492537313
9,0,8,3,1,720,730,0,0,0,1659089560,0,1659089598,38,0,0,0,0,0,0,0,0,0,0,0,0,0,0
9,1,44,3,1,750,780,0,0,0,1659089598,0,1659089619,21,0,0,0,0,0,0,0,0,0,0,0,0,0,0
9,2,137,3,1,659,665,0,0,0,1659089619,0,1659089632,13,0,0,0,0,0,0,0,0,0,0,0,0,0,0
9,3,45,3,1,870,890,0,0,0,1659089632,0,1659089649,17,0,0,0,0,0,0,0,0,0,0,0,0,0,0
9,4,32,3,1,895,880,0,0,0,1659089649,0,1659089669,20,0,0,0,0,0,0,0,0,0,0,0,0,0,0
9,5,185,3,1,1200,905,0,0,0,1659089669,0,1659089694,25,0,0,0,0,0,0,0,0,0,0,0,0,0,0
9,6,98,3,1,790,780,0,0,0,1659089694,0,1659089711,17,0,0,0,0,0,0,0,0,0,0,0,0,0,0
9,7,119,3,1,750,725,0,0,0,1659089711,0,1659089722,11,0,0,0,0,0,0,0,0,0,0,0,0,0,0
9,8,192,3,1,950,915,0,0,0,1659089722,0,1659089734,12,0,0,0,0,0,0,0,0,0,0,0,0,0,0
9,9,58,3,1,490,480,0,0,0,1659089734,0,1659089744,10,0,0,0,0,0,0,0,0,0,0,0,0,0,0
9,10,157,3,1,585,600,0,0,0,1659089744,0,1659089754,10,0,0,0,0,0,0,0,0,0,0,0,0,0,0
9,11,175,3,1,500,490,0,0,0,1659089754,0,1659089775,21,0,0,0,0,0,0,0,0,0,0,0,0,0,0
9,12,152,3,1,515,530,0,0,0,1659089775,0,1659089792,17,0,0,0,0,0,0,0,0,0,0,0,0,0,0
9,13,75,3,1,994,970,0,0,0,1659089792,0,1659089821,29,0,0,0,0,0,0,0,0,0,0,0,0,0,0
9,14,10,3,1,700,700,0,0,0,1659089821,0,1659089844,23,0,0,0,0,0,0,0,0,0,0,0,0,0,0
9,15,147,3,1,420,415,0,0,0,1659089844,0,1659089866,22,0,0,0,0,0,0,0,0,0,0,0,0,0,0
9,16,139,3,1,490,490,0,0,0,1659089866,0,1659089898,32,0,0,0,0,0,0,0,0,0,0,0,0,0,0
9,17,163,3,1,450,450,0,0,0,1659089898,0,1659089924,26,0,0,0,0,0,0,0,0,0,0,0,0,0,0
9,18,19,3,1,400,405,0,0,0,1659089924,0,1659089942,18,0,0,0,0,0,0,0,0,0,0,0,0,0,0
9,19,122,3,1,725,715,0,0,0,1659089942,0,1659090000,58,0,0,0,0,0,0,0,0,0,0,0,0,0,0
9,20,181,3,1,789,805,0,0,0,1659090000,0,1659090018,18,0,0,0,0,0,0,0,0,0,0,0,0,0,0
9,21,196,3,1,650,665,0,0,0,1659090018,0,1659090039,21,0,0,0,0,0,0,0,0,0,0,0,0,0,0
9,22,86,3,1,850,890,0,0,0,1659090039,0,1659090076,37,0,0,0,0,0,0,0,0,0,0,0,0,0,0
9,23,106,3,1,457,470,0,0,0,1659090076,0,1659090101,25,0,0,0,0,0,0,0,0,0,0,0,0,0,0
9,24,3,3,1,640,645,0,0,0,1659090101,0,1659090128,27,0,0,0,0,0,0,0,0,0,0,0,0,0,0
9,25,4,3,1,950,950,0,0,0,1659090128,0,1659090276,148,0,0,0,0,0,0,0,0,0,0,0,0,0,0
9,26,170,3,1,460,440,0,0,0,1659090276,0,1659090346,70,0,0,0,0,0,0,0,0,0,0,0,0,0,0
9,27,105,3,1,716,745,0,0,0,1659090346,0,1659090403,57,0,0,0,0,0,0,0,0,0,0,0,0,0,0
9,28,64,3,1,930,970,0,0,0,1659090403,0,1659090439,36,0,0,0,0,0,0,0,0,0,0,0,0,0,0
9,29,41,3,1,817,810,0,0,0,1659090439,0,1659090482,43,0,0,0,0,0,0,0,0,0,0,0,0,0,0
9,0,100,3,2,895,870,0,850,1000,1659090489,1659090545,1659090549,60,4,0,0,0,0,0,0,0,0,0,0,0,0,0
9,1,124,3,2,430,445,0,500,600,1659090549,1659090590,1659090591,42,1,0,0,0,0,0,0,0,0,0,0,0,0,0
9,2,46,3,2,480,515,0,450,550,1659090591,1659090610,1659090611,20,1,0,0,0,0,0,0,0,0,0,0,0,0,0
9,3,159,3,2,775,810,0,750,900,1659090611,1659090633,1659090634,23,1,0,0,0,0,0,0,0,0,0,0,0,0,0
9,4,28,3,2,846,865,0,750,900,1659090634,1659090664,1659090666,32,2,0,0,0,0,0,0,0,0,0,0,0,0,0
9,5,65,3,2,450,440,0,400,500,1659090666,1659090679,1659090682,16,3,0,0,0,0,0,0,0,0,0,0,0,0,0
9,6,67,3,2,570,595,0,550,700,1659090682,1659090727,1659090728,46,1,0,0,0,0,0,0,0,0,0,0,0,0,0
9,7,120,3,2,522,510,0,450,550,1659090728,1659090743,1659090747,19,4,0,0,0,0,0,0,0,0,0,0,0,0,0
9,8,155,3,2,450,460,0,400,500,1659090747,1659090762,1659090764,17,2,0,0,0,0,0,0,0,0,0,0,0,0,0
9,9,189,3,2,420,405,0,450,550,1659090764,1659090783,1659090784,20,1,0,0,0,0,0,0,0,0,0,0,0,0,0
9,0,110,3,3,758,770,800,0,0,1659090832,1659090886,1659090911,79,25,1,5,5.25,0,0,1659090904,0,true,780,1659090909,780,5,0.66666666666667
9,1,167,3,3,580,570,550,0,0,1659090911,1659090964,1659090991,80,27,2,4,5.4545454545455,0,1659090916,1659090984,0,true,560,1659090988,560,5,0.5
9,2,197,3,3,635,650,650,0,0,1659090991,1659091057,1659091067,76,10,1,5,2.3076923076923,5,1659091005,1659090984,1659091064,false,560,1659090988,650,5,0
9,3,136,3,3,690,790,790,0,0,1659091067,1659091145,1659091164,97,19,2,4,12.658227848101,5,1659091071,1659090984,1659091162,false,560,1659090988,790,4,0
9,4,5,3,3,791,685,650,0,0,1659091164,1659091237,1659091252,88,15,3,5,21.692307692308,5,1659091173,1659091245,1659091162,true,670,1659091251,670,4,0.57142857142857
9,5,62,3,3,474,495,490,0,0,1659091252,1659091309,1659091322,70,13,2,4,3.265306122449,5,1659091264,1659091245,1659091320,false,670,1659091251,490,5,0
9,6,40,3,3,1950,1030,1200,0,0,1659091322,1659091354,1659091377,55,23,5,3,62.5,5,1659091325,1659091360,1659091320,true,1100,1659091376,1100,2,0.58823529411765
9,7,146,3,3,1300,1060,1700,0,0,1659091377,1659091440,1659091454,77,14,6,2,23.529411764706,2,1659091396,1659091360,1659091451,false,1100,1659091376,1700,2,0
9,8,176,3,3,390,450,400,0,0,1659091454,1659091498,1659091509,55,11,3,5,2.5,2,1659091462,1659091505,1659091451,true,430,1659091509,430,4,0.6
9,9,113,3,3,750,820,750,0,0,1659091510,1659091563,1659091583,73,20,3,3,0,2,1659091516,1659091571,1659091451,true,790,1659091582,790,4,0.57142857142857
9,10,117,3,3,560,700,650,0,0,1659091583,1659091623,1659091643,60,20,3,4,13.846153846154,2,1659091589,1659091630,1659091451,true,670,1659091642,670,3,0.4
9,11,34,3,3,457,550,550,0,0,1659091643,1659091675,1659091692,49,17,2,5,16.909090909091,2,1659091650,1659091630,1659091691,false,670,1659091642,550,3,0
9,12,84,3,3,1385,945,950,0,0,1659091692,1659091728,1659091751,59,23,3,5,45.789473684211,2,1659091699,1659091743,1659091691,true,980,1659091750,980,3,6
9,13,144,3,3,329,615,400,0,0,1659091751,1659091788,1659091800,49,12,6,5,17.75,2,1659091755,1659091743,1659091797,false,980,1659091750,400,3,0
9,14,63,3,3,1300,1120,1000,0,0,1659091800,1659091832,1659091859,59,27,3,3,30,2,1659091808,1659091837,1659091797,true,1200,1659091858,1200,4,1.6666666666667
9,15,29,3,3,1415,1125,1500,0,0,1659091859,1659091888,1659091917,58,29,6,5,5.6666666666667,2,1659091863,1659091837,1659091916,false,1200,1659091858,1500,4,0
9,16,36,3,3,790,815,750,0,0,1659091917,1659091961,1659091974,57,13,5,5,5.3333333333333,2,1659091922,1659091837,1659091973,false,1200,1659091858,750,4,0
9,17,195,3,3,1815,1155,2000,0,0,1659091974,1659092031,1659092040,66,9,7,6,9.25,2,1659091986,1659091837,1659092038,false,1200,1659091858,2000,4,0
9,18,115,3,3,405,385,450,0,0,1659092040,1659092060,1659092075,35,15,6,6,10,2,1659092046,1659092071,1659092038,true,420,1659092074,420,5,0.46153846153846
9,19,129,3,3,605,775,700,0,0,1659092075,1659092114,1659092124,49,10,3,5,13.571428571429,2,1659092083,1659092120,1659092038,true,750,1659092123,750,3,0.66666666666667
9,20,130,3,3,875,960,940,0,0,1659092124,1659092158,1659092186,62,28,4,4,6.9148936170213,2,1659092129,1659092173,1659092184,false,940,1659092123,940,4,0
9,21,164,3,3,1150,1200,1250,0,0,1659092186,1659092224,1659092243,57,19,5,5,8,2,1659092189,1659092232,1659092184,true,1350,1659092242,1350,4,2
9,22,72,3,3,806,835,750,0,0,1659092243,1659092282,1659092307,64,25,5,6,7.4666666666667,2,1659092262,1659092301,1659092184,true,780,1659092306,780,5,0.35294117647059
9,23,156,3,3,430,580,450,0,0,1659092307,1659092334,1659092353,46,19,6,6,4.4444444444444,2,1659092310,1659092343,1659092184,true,530,1659092352,530,3,0.61538461538462
9,24,60,3,3,870,900,800,0,0,1659092353,1659092403,1659092416,63,13,4,6,8.75,2,1659092360,1659092411,1659092184,true,850,1659092415,850,5,0.5
9,25,33,3,3,980,840,900,0,0,1659092416,1659092450,1659092464,48,14,5,5,8.8888888888889,2,1659092419,1659092457,1659092184,true,870,1659092463,870,4,0.5
9,26,187,3,3,1550,1265,1200,0,0,1659092464,1659092489,1659092499,35,10,3,5,29.166666666667,2,1659092468,1659092457,1659092498,false,870,1659092463,1200,3,0
9,27,114,3,3,1340,980,1000,0,0,1659092499,1659092534,1659092559,60,25,3,3,34,2,1659092507,1659092457,1659092558,false,870,1659092463,1000,3,0
9,28,56,3,3,405,630,450,0,0,1659092559,1659092604,1659092623,64,19,6,6,10,2,1659092564,1659092619,1659092558,true,500,1659092622,500,3,0.27777777777778
9,29,104,3,3,670,735,650,0,0,1659092624,1659092648,1659092663,39,15,5,4,3.0769230769231,2,1659092630,1659092657,1659092558,true,700,1659092662,700,4,0.58823529411765
12,0,157,3,1,585,600,0,0,0,1659094521,0,1659094619,98,0,0,0,0,0,0,0,0,0,0,0,0,0,0
12,1,175,3,1,500,490,0,0,0,1659094619,0,1659094670,51,0,0,0,0,0,0,0,0,0,0,0,0,0,0
12,2,19,3,1,400,405,0,0,0,1659094670,0,1659094694,24,0,0,0,0,0,0,0,0,0,0,0,0,0,0
12,3,152,3,1,515,530,0,0,0,1659094694,0,1659094716,22,0,0,0,0,0,0,0,0,0,0,0,0,0,0
12,0,157,3,1,585,600,0,0,0,1659094692,0,1659094722,30,0,0,0,0,0,0,0,0,0,0,0,0,0,0
12,4,106,3,1,457,470,0,0,0,1659094716,0,1659094739,23,0,0,0,0,0,0,0,0,0,0,0,0,0,0
12,1,175,3,1,500,490,0,0,0,1659094722,0,1659094745,23,0,0,0,0,0,0,0,0,0,0,0,0,0,0
12,2,19,3,1,400,405,0,0,0,1659094745,0,1659094766,21,0,0,0,0,0,0,0,0,0,0,0,0,0,0
12,5,4,3,1,950,950,0,0,0,1659094739,0,1659094775,36,0,0,0,0,0,0,0,0,0,0,0,0,0,0
12,3,152,3,1,515,530,0,0,0,1659094766,0,1659094776,10,0,0,0,0,0,0,0,0,0,0,0,0,0,0
12,4,106,3,1,457,470,0,0,0,1659094776,0,1659094788,12,0,0,0,0,0,0,0,0,0,0,0,0,0,0
12,6,45,3,1,870,890,0,0,0,1659094775,0,1659094796,21,0,0,0,0,0,0,0,0,0,0,0,0,0,0
12,5,4,3,1,950,950,0,0,0,1659094788,0,1659094798,10,0,0,0,0,0,0,0,0,0,0,0,0,0,0
12,6,45,3,1,870,890,0,0,0,1659094798,0,1659094809,11,0,0,0,0,0,0,0,0,0,0,0,0,0,0
12,7,119,3,1,750,725,0,0,0,1659094809,0,1659094821,12,0,0,0,0,0,0,0,0,0,0,0,0,0,0
12,7,119,3,1,750,725,0,0,0,1659094797,0,1659094824,27,0,0,0,0,0,0,0,0,0,0,0,0,0,0
12,8,3,3,1,640,645,0,0,0,1659094821,0,1659094831,10,0,0,0,0,0,0,0,0,0,0,0,0,0,0
12,9,41,3,1,817,810,0,0,0,1659094831,0,1659094844,13,0,0,0,0,0,0,0,0,0,0,0,0,0,0
12,8,3,3,1,640,645,0,0,0,1659094824,0,1659094848,24,0,0,0,0,0,0,0,0,0,0,0,0,0,0
12,10,64,3,1,930,970,0,0,0,1659094844,0,1659094855,11,0,0,0,0,0,0,0,0,0,0,0,0,0,0
12,11,86,3,1,850,890,0,0,0,1659094855,0,1659094860,5,0,0,0,0,0,0,0,0,0,0,0,0,0,0
12,12,170,3,1,460,440,0,0,0,1659094860,0,1659094868,8,0,0,0,0,0,0,0,0,0,0,0,0,0,0
12,9,41,3,1,817,810,0,0,0,1659094848,0,1659094877,29,0,0,0,0,0,0,0,0,0,0,0,0,0,0
12,13,122,3,1,725,715,0,0,0,1659094868,0,1659094887,19,0,0,0,0,0,0,0,0,0,0,0,0,0,0
12,14,58,3,1,490,480,0,0,0,1659094887,0,1659094899,12,0,0,0,0,0,0,0,0,0,0,0,0,0,0
12,10,64,3,1,930,970,0,0,0,1659094877,0,1659094908,31,0,0,0,0,0,0,0,0,0,0,0,0,0,0
12,15,181,3,1,789,805,0,0,0,1659094899,0,1659094909,10,0,0,0,0,0,0,0,0,0,0,0,0,0,0
12,16,75,3,1,994,970,0,0,0,1659094909,0,1659094922,13,0,0,0,0,0,0,0,0,0,0,0,0,0,0
12,17,192,3,1,950,915,0,0,0,1659094922,0,1659094933,11,0,0,0,0,0,0,0,0,0,0,0,0,0,0
12,11,86,3,1,850,890,0,0,0,1659094908,0,1659094935,27,0,0,0,0,0,0,0,0,0,0,0,0,0,0
12,18,185,3,1,1200,905,0,0,0,1659094933,0,1659094942,9,0,0,0,0,0,0,0,0,0,0,0,0,0,0
12,19,137,3,1,659,665,0,0,0,1659094942,0,1659094951,9,0,0,0,0,0,0,0,0,0,0,0,0,0,0
12,20,32,3,1,895,880,0,0,0,1659094951,0,1659094958,7,0,0,0,0,0,0,0,0,0,0,0,0,0,0
12,12,170,3,1,460,440,0,0,0,1659094935,0,1659094962,27,0,0,0,0,0,0,0,0,0,0,0,0,0,0
12,21,8,3,1,720,730,0,0,0,1659094958,0,1659094964,6,0,0,0,0,0,0,0,0,0,0,0,0,0,0
12,22,196,3,1,650,665,0,0,0,1659094964,0,1659094976,12,0,0,0,0,0,0,0,0,0,0,0,0,0,0
12,23,98,3,1,790,780,0,0,0,1659094976,0,1659094986,10,0,0,0,0,0,0,0,0,0,0,0,0,0,0
12,13,122,3,1,725,715,0,0,0,1659094962,0,1659094988,26,0,0,0,0,0,0,0,0,0,0,0,0,0,0
12,24,163,3,1,450,450,0,0,0,1659094986,0,1659094992,6,0,0,0,0,0,0,0,0,0,0,0,0,0,0
12,25,139,3,1,490,490,0,0,0,1659094992,0,1659095002,10,0,0,0,0,0,0,0,0,0,0,0,0,0,0
12,14,58,3,1,490,480,0,0,0,1659094988,0,1659095008,20,0,0,0,0,0,0,0,0,0,0,0,0,0,0
12,26,44,3,1,750,780,0,0,0,1659095002,0,1659095012,10,0,0,0,0,0,0,0,0,0,0,0,0,0,0
12,27,10,3,1,700,700,0,0,0,1659095012,0,1659095022,10,0,0,0,0,0,0,0,0,0,0,0,0,0,0
12,28,147,3,1,420,415,0,0,0,1659095022,0,1659095026,4,0,0,0,0,0,0,0,0,0,0,0,0,0,0
12,29,105,3,1,716,745,0,0,0,1659095026,0,1659095030,4,0,0,0,0,0,0,0,0,0,0,0,0,0,0
12,15,181,3,1,789,805,0,0,0,1659095008,0,1659095041,33,0,0,0,0,0,0,0,0,0,0,0,0,0,0
12,0,65,3,2,450,440,0,400,450,1659095047,1659095060,1659095062,15,2,0,0,0,0,0,0,0,0,0,0,0,0,0
12,16,75,3,1,994,970,0,0,0,1659095041,0,1659095064,23,0,0,0,0,0,0,0,0,0,0,0,0,0,0
12,1,189,3,2,420,405,0,470,520,1659095062,1659095080,1659095081,19,1,0,0,0,0,0,0,0,0,0,0,0,0,0
12,17,192,3,1,950,915,0,0,0,1659095064,0,1659095093,29,0,0,0,0,0,0,0,0,0,0,0,0,0,0
12,2,124,3,2,430,445,0,490,530,1659095081,1659095105,1659095106,25,1,0,0,0,0,0,0,0,0,0,0,0,0,0
12,18,185,3,1,1200,905,0,0,0,1659095093,0,1659095120,27,0,0,0,0,0,0,0,0,0,0,0,0,0,0
12,3,28,3,2,846,865,0,650,750,1659095106,1659095124,1659095125,19,1,0,0,0,0,0,0,0,0,0,0,0,0,0
12,4,100,3,2,895,870,0,700,760,1659095125,1659095137,1659095137,12,0,0,0,0,0,0,0,0,0,0,0,0,0,0
12,19,137,3,1,659,665,0,0,0,1659095120,0,1659095141,21,0,0,0,0,0,0,0,0,0,0,0,0,0,0
12,5,67,3,2,570,595,0,490,560,1659095138,1659095150,1659095151,13,1,0,0,0,0,0,0,0,0,0,0,0,0,0
12,20,32,3,1,895,880,0,0,0,1659095141,0,1659095160,19,0,0,0,0,0,0,0,0,0,0,0,0,0,0
12,6,46,3,2,480,515,0,430,490,1659095151,1659095164,1659095165,14,1,0,0,0,0,0,0,0,0,0,0,0,0,0
12,21,8,3,1,720,730,0,0,0,1659095160,0,1659095176,16,0,0,0,0,0,0,0,0,0,0,0,0,0,0
12,7,159,3,2,775,810,0,700,750,1659095165,1659095193,1659095194,29,1,0,0,0,0,0,0,0,0,0,0,0,0,0
12,22,196,3,1,650,665,0,0,0,1659095176,0,1659095196,20,0,0,0,0,0,0,0,0,0,0,0,0,0,0
12,8,120,3,2,522,510,0,510,580,1659095194,1659095207,1659095208,14,1,0,0,0,0,0,0,0,0,0,0,0,0,0
12,23,98,3,1,790,780,0,0,0,1659095196,0,1659095213,17,0,0,0,0,0,0,0,0,0,0,0,0,0,0
12,9,155,3,2,450,460,0,420,490,1659095208,1659095245,1659095246,38,1,0,0,0,0,0,0,0,0,0,0,0,0,0
12,24,163,3,1,450,450,0,0,0,1659095214,0,1659095289,75,0,0,0,0,0,0,0,0,0,0,0,0,0,0
12,25,139,3,1,490,490,0,0,0,1659095289,0,1659095299,10,0,0,0,0,0,0,0,0,0,0,0,0,0,0
12,26,44,3,1,750,780,0,0,0,1659095299,0,1659095307,8,0,0,0,0,0,0,0,0,0,0,0,0,0,0
12,27,10,3,1,700,700,0,0,0,1659095307,0,1659095315,8,0,0,0,0,0,0,0,0,0,0,0,0,0,0
12,0,110,3,3,758,770,600,0,0,1659095295,1659095314,1659095326,31,12,5,5,26.333333333333,0,0,0,1659095325,false,-1,0,600,3,0
12,28,147,3,1,420,415,0,0,0,1659095315,0,1659095327,12,0,0,0,0,0,0,0,0,0,0,0,0,0,0
12,29,105,3,1,716,745,0,0,0,1659095327,0,1659095339,12,0,0,0,0,0,0,0,0,0,0,0,0,0,0
12,1,167,3,3,580,570,600,0,0,1659095326,1659095353,1659095363,37,10,1,6,3.3333333333333,0,1659095332,0,1659095360,false,-1,0,600,5,0
12,2,156,3,3,430,580,550,0,0,1659095363,1659095392,1659095398,35,6,1,7,21.818181818182,6,1659095377,0,1659095397,false,-1,0,550,3,0
12,3,136,3,3,690,790,750,0,0,1659095398,1659095430,1659095438,40,8,2,4,8,6,1659095408,0,1659095436,false,-1,0,750,4,0
12,0,65,3,2,450,440,0,420,470,1659095351,1659095438,1659095440,89,2,0,0,0,0,0,0,0,0,0,0,0,0,0
12,4,84,3,3,1385,945,900,0,0,1659095438,1659095453,1659095460,22,7,2,5,53.888888888889,6,1659095442,0,1659095459,false,-1,0,900,2,0
12,1,189,3,2,420,405,0,500,570,1659095440,1659095470,1659095471,31,1,0,0,0,0,0,0,0,0,0,0,0,0,0
12,2,124,3,2,430,445,0,550,600,1659095471,1659095486,1659095487,16,1,0,0,0,0,0,0,0,0,0,0,0,0,0
12,5,187,3,3,1550,1265,1000,0,0,1659095460,1659095484,1659095492,32,8,5,4,55,6,1659095464,0,1659095491,false,-1,0,1000,2,0
12,3,28,3,2,846,865,0,850,900,1659095487,1659095522,1659095523,36,1,0,0,0,0,0,0,0,0,0,0,0,0,0
12,6,62,3,3,474,495,590,0,0,1659095492,1659095517,1659095531,39,14,4,6,19.661016949153,6,1659095494,1659095524,1659095491,true,550,1659095530,550,4,0.42105263157895
12,4,100,3,2,895,870,0,800,850,1659095523,1659095541,1659095542,19,1,0,0,0,0,0,0,0,0,0,0,0,0,0
12,5,67,3,2,570,595,0,650,700,1659095542,1659095555,1659095556,14,1,0,0,0,0,0,0,0,0,0,0,0,0,0
12,7,129,3,3,605,775,750,0,0,1659095531,1659095558,1659095563,32,5,2,6,19.333333333333,5,1659095544,1659095524,1659095562,false,550,1659095530,750,3,0
12,6,46,3,2,480,515,0,550,600,1659095556,1659095572,1659095574,18,2,0,0,0,0,0,0,0,0,0,0,0,0,0
12,8,104,3,3,670,735,750,0,0,1659095563,1659095576,1659095580,17,4,2,6,10.666666666667,5,1659095566,1659095524,1659095579,false,550,1659095530,750,4,0
12,7,159,3,2,775,810,0,750,800,1659095574,1659095586,1659095588,14,2,0,0,0,0,0,0,0,0,0,0,0,0,0
12,9,144,3,3,329,615,500,0,0,1659095580,1659095596,1659095601,21,5,5,7,34.2,5,1659095586,1659095524,1659095600,false,550,1659095530,500,1,0
12,8,120,3,2,522,510,0,470,520,1659095588,1659095609,1659095610,22,1,0,0,0,0,0,0,0,0,0,0,0,0,0
12,9,155,3,2,450,460,0,420,470,1659095610,1659095621,1659095622,12,1,0,0,0,0,0,0,0,0,0,0,0,0,0
12,10,72,3,3,806,835,900,0,0,1659095601,1659095619,1659095624,23,5,2,5,10.444444444444,5,1659095605,1659095524,1659095623,false,550,1659095530,900,4,0
12,11,63,3,3,1300,1120,900,0,0,1659095624,1659095641,1659095652,28,11,5,5,44.444444444444,5,1659095625,1659095648,1659095623,true,950,1659095651,950,3,0.22727272727273
12,12,56,3,3,405,630,450,0,0,1659095652,1659095668,1659095679,27,11,6,4,10,6,1659095659,1659095648,1659095678,false,950,1659095651,450,4,0
12,13,114,3,3,1340,980,1100,0,0,1659095679,1659095711,1659095715,36,4,4,5,21.818181818182,6,1659095683,1659095648,1659095714,false,950,1659095651,1100,4,0
12,14,195,3,3,1815,1155,2000,0,0,1659095715,1659095728,1659095739,24,11,5,5,9.25,6,1659095717,1659095734,1659095714,true,1800,1659095739,1800,5,0.23668639053254
12,15,33,3,3,980,840,1200,0,0,1659095739,1659095761,1659095765,26,4,4,5,18.333333333333,6,1659095747,1659095763,1659095764,false,1800,1659095739,1200,3,0
12,16,60,3,3,870,900,1200,0,0,1659095765,1659095775,1659095779,14,4,5,4,27.5,6,1659095767,1659095763,1659095778,false,1800,1659095739,1200,2,0
12,0,110,3,3,758,770,800,0,0,1659095700,1659095752,1659095779,79,27,1,6,5.25,0,0,0,1659095778,false,-1,0,800,4,0
12,17,130,3,3,875,960,890,0,0,1659095779,1659095797,1659095803,24,6,4,3,1.685393258427,6,1659095786,1659095763,1659095803,false,1800,1659095739,890,5,0
12,18,146,3,3,1300,1060,1300,0,0,1659095803,1659095828,1659095832,29,4,6,4,0,6,1659095808,1659095763,1659095831,false,1800,1659095739,1300,5,0
12,19,115,3,3,405,385,420,0,0,1659095832,1659095851,1659095857,25,6,2,7,3.5714285714286,6,1659095836,1659095763,1659095856,false,1800,1659095739,420,5,0
12,20,29,3,3,1415,1125,1000,0,0,1659095857,1659095889,1659095894,37,5,3,6,41.5,6,1659095860,1659095763,1659095893,false,1800,1659095739,1000,3,0
12,1,167,3,3,580,570,530,0,0,1659095779,1659095882,1659095909,130,27,3,5,9.4339622641509,0,1659095782,0,1659095908,false,-1,0,530,4,0
12,21,34,3,3,457,550,470,0,0,1659095894,1659095914,1659095918,24,4,5,4,2.7659574468085,6,1659095896,1659095763,1659095917,false,1800,1659095739,470,5,0
12,22,36,3,3,790,815,800,0,0,1659095918,1659095964,1659095968,50,4,2,4,1.25,5,1659095923,1659095763,1659095967,false,1800,1659095739,800,5,0
12,2,156,3,3,430,580,400,0,0,1659095909,1659095969,1659095977,68,8,7,5,7.5,5,1659095915,0,1659095976,false,-1,0,400,4,0
12,23,117,3,3,560,700,650,0,0,1659095968,1659095992,1659095999,31,7,1,5,13.846153846154,5,1659095969,1659095763,1659095998,false,1800,1659095739,650,4,0
12,24,113,3,3,750,820,950,0,0,1659095999,1659096010,1659096020,21,10,5,5,21.052631578947,5,1659096000,1659096016,1659095998,true,900,1659096020,900,3,0.38461538461538
12,25,197,3,3,635,650,580,0,0,1659096020,1659096037,1659096041,21,4,5,5,9.4827586206897,5,1659096022,1659096016,1659096041,false,900,1659096020,580,4,0
12,26,164,3,3,1150,1200,1100,0,0,1659096041,1659096054,1659096057,16,3,1,5,4.5454545454545,5,1659096043,1659096016,1659096057,false,900,1659096020,1100,4,0
12,27,5,3,3,791,685,600,0,0,1659096057,1659096102,1659096106,49,4,2,5,31.833333333333,6,1659096065,1659096016,1659096105,false,900,1659096020,600,3,0
12,3,136,3,3,690,790,790,0,0,1659095977,1659096096,1659096107,130,11,1,5,12.658227848101,5,1659095990,0,1659096106,false,-1,0,790,4,0
12,28,176,3,3,390,450,550,0,0,1659096106,1659096120,1659096126,20,6,3,3,29.090909090909,6,1659096108,1659096123,1659096105,true,520,1659096125,520,2,0.3
12,29,40,3,3,1950,1030,1100,0,0,1659096126,1659096139,1659096143,17,4,2,4,77.272727272727,6,1659096128,1659096123,1659096142,false,520,1659096125,1100,2,0
12,4,84,3,3,1385,945,900,0,0,1659096107,1659096180,1659096202,95,22,4,4,53.888888888889,5,1659096122,0,1659096200,false,-1,0,900,2,0
12,5,187,3,3,1550,1265,1500,0,0,1659096202,1659096247,1659096258,56,11,5,2,3.3333333333333,5,1659096211,1659096254,1659096200,true,1300,1659096257,1300,4,0.85106382978723
12,6,62,3,3,474,495,500,0,0,1659096258,1659096327,1659096333,75,6,1,6,5.2,5,1659096273,1659096254,1659096332,false,1300,1659096257,500,4,0
12,7,129,3,3,605,775,800,0,0,1659096333,1659096476,1659096481,148,5,2,3,24.375,5,1659096357,1659096254,1659096480,false,1300,1659096257,800,2,0
12,8,104,3,3,670,735,800,0,0,1659096482,1659096564,1659096574,92,10,6,4,16.25,5,1659096504,1659096254,1659096574,false,1300,1659096257,800,3,0
12,9,144,3,3,329,615,420,0,0,1659096575,1659096647,1659096651,76,4,7,5,21.666666666667,5,1659096597,1659096254,1659096651,false,1300,1659096257,420,3,0
12,10,72,3,3,806,835,760,0,0,1659096651,1659096731,1659096735,84,4,6,7,6.0526315789474,5,1659096661,1659096254,1659096735,false,1300,1659096257,760,4,0
12,11,63,3,3,1300,1120,1000,0,0,1659096736,1659096836,1659096842,106,6,3,4,30,5,1659096764,1659096254,1659096841,false,1300,1659096257,1000,3,0
12,12,56,3,3,405,630,500,0,0,1659096842,1659096895,1659096899,57,4,6,4,19,4,1659096852,1659096254,1659096898,false,1300,1659096257,500,3,0
12,13,114,3,3,1340,980,890,0,0,1659096899,1659096944,1659096948,49,4,5,5,50.561797752809,4,1659096908,1659096254,1659096948,false,1300,1659096257,890,2,0
12,14,195,3,3,1815,1155,1800,0,0,1659096948,1659096988,1659096993,45,5,7,2,0.83333333333333,4,1659096956,1659096254,1659096992,false,1300,1659096257,1800,5,0
12,15,33,3,3,980,840,920,0,0,1659096993,1659097038,1659097043,50,5,1,5,6.5217391304348,4,1659097001,1659096254,1659097042,false,1300,1659096257,920,4,0
12,16,60,3,3,870,900,900,0,0,1659097043,1659097105,1659097109,66,4,1,6,3.3333333333333,4,1659097068,1659096254,1659097109,false,1300,1659096257,900,5,0
12,17,130,3,3,875,960,920,0,0,1659097109,1659097171,1659097175,66,4,2,3,4.8913043478261,3,1659097129,1659096254,1659097174,false,1300,1659096257,920,4,0
12,18,146,3,3,1300,1060,1400,0,0,1659097175,1659097217,1659097225,50,8,6,2,7.1428571428571,3,1659097186,1659096254,1659097224,false,1300,1659096257,1400,4,0
12,19,115,3,3,405,385,510,0,0,1659097225,1659097299,1659097303,78,4,7,5,20.588235294118,3,1659097233,1659096254,1659097302,false,1300,1659096257,510,3,0
12,20,29,3,3,1415,1125,1000,0,0,1659097304,1659097359,1659097364,60,5,4,5,41.5,3,1659097315,1659096254,1659097363,false,1300,1659096257,1000,3,0
12,21,34,3,3,457,550,500,0,0,1659097364,1659097429,1659097433,69,4,3,4,8.6,3,1659097371,1659096254,1659097432,false,1300,1659096257,500,4,0
12,22,36,3,3,790,815,780,0,0,1659097433,1659097483,1659097487,54,4,4,4,1.2820512820513,2,1659097447,1659096254,1659097486,false,1300,1659096257,780,5,0
12,23,117,3,3,560,700,700,0,0,1659097487,1659097530,1659097533,46,3,1,4,20,2,1659097492,1659096254,1659097533,false,1300,1659096257,700,3,0
12,24,113,3,3,750,820,800,0,0,1659097533,1659097596,1659097602,69,6,1,3,6.25,2,1659097537,1659096254,1659097601,false,1300,1659096257,800,4,0
12,25,197,3,3,635,650,640,0,0,1659097602,1659097737,1659097741,139,4,1,5,0.78125,2,1659097605,1659096254,1659097740,false,1300,1659096257,640,5,0
12,26,164,3,3,1150,1200,1100,0,0,1659097741,1659097814,1659097818,77,4,2,3,4.5454545454545,2,1659097743,1659096254,1659097817,false,1300,1659096257,1100,4,0
12,27,5,3,3,791,685,690,0,0,1659097818,1659097871,1659097875,57,4,1,5,14.63768115942,5,1659097832,1659096254,1659097875,false,1300,1659096257,690,4,0
12,28,176,3,3,390,450,450,0,0,1659097875,1659097900,1659097904,29,4,1,6,13.333333333333,5,1659097883,1659096254,1659097903,false,1300,1659096257,450,4,0
12,29,40,3,3,1950,1030,1300,0,0,1659097904,1659097948,1659097954,50,6,6,2,50,5,1659097909,1659096254,1659097954,false,1300,1659096257,1300,2,0
18,0,32,3,1,895,880,0,0,0,1659099019,0,1659099052,33,0,0,0,0,0,0,0,0,0,0,0,0,0,0
18,1,185,3,1,1200,905,0,0,0,1659099052,0,1659099064,12,0,0,0,0,0,0,0,0,0,0,0,0,0,0
18,2,58,3,1,490,480,0,0,0,1659099064,0,1659099072,8,0,0,0,0,0,0,0,0,0,0,0,0,0,0
18,3,106,3,1,457,470,0,0,0,1659099072,0,1659099077,5,0,0,0,0,0,0,0,0,0,0,0,0,0,0
18,4,152,3,1,515,530,0,0,0,1659099077,0,1659099082,5,0,0,0,0,0,0,0,0,0,0,0,0,0,0
18,5,170,3,1,460,440,0,0,0,1659099082,0,1659099088,6,0,0,0,0,0,0,0,0,0,0,0,0,0,0
18,6,75,3,1,994,970,0,0,0,1659099088,0,1659099093,5,0,0,0,0,0,0,0,0,0,0,0,0,0,0
18,7,119,3,1,750,725,0,0,0,1659099093,0,1659099106,13,0,0,0,0,0,0,0,0,0,0,0,0,0,0
18,8,122,3,1,725,715,0,0,0,1659099106,0,1659099116,10,0,0,0,0,0,0,0,0,0,0,0,0,0,0
18,9,98,3,1,790,780,0,0,0,1659099116,0,1659099121,5,0,0,0,0,0,0,0,0,0,0,0,0,0,0
18,10,3,3,1,640,645,0,0,0,1659099121,0,1659099126,5,0,0,0,0,0,0,0,0,0,0,0,0,0,0
18,11,105,3,1,716,745,0,0,0,1659099126,0,1659099132,6,0,0,0,0,0,0,0,0,0,0,0,0,0,0
18,12,41,3,1,817,810,0,0,0,1659099132,0,1659099136,4,0,0,0,0,0,0,0,0,0,0,0,0,0,0
18,13,192,3,1,950,915,0,0,0,1659099137,0,1659099140,3,0,0,0,0,0,0,0,0,0,0,0,0,0,0
18,14,196,3,1,650,665,0,0,0,1659099140,0,1659099142,2,0,0,0,0,0,0,0,0,0,0,0,0,0,0
18,15,45,3,1,870,890,0,0,0,1659099142,0,1659099146,4,0,0,0,0,0,0,0,0,0,0,0,0,0,0
18,16,175,3,1,500,490,0,0,0,1659099146,0,1659099148,2,0,0,0,0,0,0,0,0,0,0,0,0,0,0
18,17,10,3,1,700,700,0,0,0,1659099149,0,1659099152,3,0,0,0,0,0,0,0,0,0,0,0,0,0,0
18,18,4,3,1,950,950,0,0,0,1659099152,0,1659099158,6,0,0,0,0,0,0,0,0,0,0,0,0,0,0
18,19,139,3,1,490,490,0,0,0,1659099158,0,1659099159,1,0,0,0,0,0,0,0,0,0,0,0,0,0,0
18,20,157,3,1,585,600,0,0,0,1659099159,0,1659099161,2,0,0,0,0,0,0,0,0,0,0,0,0,0,0
18,21,163,3,1,450,450,0,0,0,1659099161,0,1659099163,2,0,0,0,0,0,0,0,0,0,0,0,0,0,0
18,22,147,3,1,420,415,0,0,0,1659099163,0,1659099165,2,0,0,0,0,0,0,0,0,0,0,0,0,0,0
18,23,86,3,1,850,890,0,0,0,1659099165,0,1659099168,3,0,0,0,0,0,0,0,0,0,0,0,0,0,0
18,24,137,3,1,659,665,0,0,0,1659099168,0,1659099170,2,0,0,0,0,0,0,0,0,0,0,0,0,0,0
18,25,64,3,1,930,970,0,0,0,1659099170,0,1659099171,1,0,0,0,0,0,0,0,0,0,0,0,0,0,0
18,26,8,3,1,720,730,0,0,0,1659099172,0,1659099173,1,0,0,0,0,0,0,0,0,0,0,0,0,0,0
18,27,181,3,1,789,805,0,0,0,1659099173,0,1659099175,2,0,0,0,0,0,0,0,0,0,0,0,0,0,0
18,28,19,3,1,400,405,0,0,0,1659099175,0,1659099177,2,0,0,0,0,0,0,0,0,0,0,0,0,0,0
18,29,44,3,1,750,780,0,0,0,1659099177,0,1659099179,2,0,0,0,0,0,0,0,0,0,0,0,0,0,0
18,0,159,3,2,775,810,0,600,850,1659099181,1659099214,1659099216,35,2,0,0,0,0,0,0,0,0,0,0,0,0,0
18,1,189,3,2,420,405,0,400,500,1659099216,1659099225,1659099226,10,1,0,0,0,0,0,0,0,0,0,0,0,0,0
18,2,67,3,2,570,595,0,450,650,1659099227,1659099242,1659099243,16,1,0,0,0,0,0,0,0,0,0,0,0,0,0
18,3,120,3,2,522,510,0,400,550,1659099243,1659099257,1659099258,15,1,0,0,0,0,0,0,0,0,0,0,0,0,0
18,4,28,3,2,846,865,0,800,1000,1659099258,1659099274,1659099275,17,1,0,0,0,0,0,0,0,0,0,0,0,0,0
18,5,155,3,2,450,460,0,350,500,1659099275,1659099285,1659099286,11,1,0,0,0,0,0,0,0,0,0,0,0,0,0
18,6,100,3,2,895,870,0,700,900,1659099286,1659099297,1659099298,12,1,0,0,0,0,0,0,0,0,0,0,0,0,0
18,7,65,3,2,450,440,0,400,600,1659099298,1659099306,1659099309,11,3,0,0,0,0,0,0,0,0,0,0,0,0,0
18,8,124,3,2,430,445,0,450,600,1659099309,1659099319,1659099320,11,1,0,0,0,0,0,0,0,0,0,0,0,0,0
18,9,46,3,2,480,515,0,350,5000,1659099320,1659099330,1659099333,13,3,0,0,0,0,0,0,0,0,0,0,0,0,0
18,0,110,3,3,758,770,650,0,0,1659099336,1659099379,1659099406,70,27,3,7,16.615384615385,0,0,0,1659099405,false,-1,0,650,4,0
18,1,167,3,3,580,570,560,0,0,1659099407,1659099437,1659099455,48,18,1,5,3.5714285714286,0,1659099417,0,1659099451,false,-1,0,560,5,0
18,2,136,3,3,690,790,940,0,0,1659099455,1659099496,1659099519,64,23,3,4,26.595744680851,6,1659099472,0,1659099513,false,-1,0,940,2,0
18,3,197,3,3,635,650,530,0,0,1659099519,1659099543,1659099552,33,9,5,5,19.811320754717,6,1659099526,0,1659099549,false,-1,0,530,4,0
19,0,75,3,1,994,970,0,0,0,1659103028,0,1659103065,37,0,0,0,0,0,0,0,0,0,0,0,0,0,0
19,1,10,3,1,700,700,0,0,0,1659103065,0,1659103079,14,0,0,0,0,0,0,0,0,0,0,0,0,0,0
19,2,19,3,1,400,405,0,0,0,1659103079,0,1659103090,11,0,0,0,0,0,0,0,0,0,0,0,0,0,0
19,3,170,3,1,460,440,0,0,0,1659103090,0,1659103100,10,0,0,0,0,0,0,0,0,0,0,0,0,0,0
19,4,86,3,1,850,890,0,0,0,1659103100,0,1659103119,19,0,0,0,0,0,0,0,0,0,0,0,0,0,0
19,5,139,3,1,490,490,0,0,0,1659103119,0,1659103128,9,0,0,0,0,0,0,0,0,0,0,0,0,0,0
19,6,122,3,1,725,715,0,0,0,1659103128,0,1659103134,6,0,0,0,0,0,0,0,0,0,0,0,0,0,0
19,7,105,3,1,716,745,0,0,0,1659103134,0,1659103150,16,0,0,0,0,0,0,0,0,0,0,0,0,0,0
19,8,163,3,1,450,450,0,0,0,1659103151,0,1659103163,12,0,0,0,0,0,0,0,0,0,0,0,0,0,0
19,9,147,3,1,420,415,0,0,0,1659103163,0,1659103168,5,0,0,0,0,0,0,0,0,0,0,0,0,0,0
19,10,45,3,1,870,890,0,0,0,1659103168,0,1659103175,7,0,0,0,0,0,0,0,0,0,0,0,0,0,0
19,11,137,3,1,659,665,0,0,0,1659103175,0,1659103183,8,0,0,0,0,0,0,0,0,0,0,0,0,0,0
19,12,32,3,1,895,880,0,0,0,1659103183,0,1659103191,8,0,0,0,0,0,0,0,0,0,0,0,0,0,0
19,13,41,3,1,817,810,0,0,0,1659103191,0,1659103197,6,0,0,0,0,0,0,0,0,0,0,0,0,0,0
19,14,3,3,1,640,645,0,0,0,1659103197,0,1659103206,9,0,0,0,0,0,0,0,0,0,0,0,0,0,0
19,15,106,3,1,457,470,0,0,0,1659103206,0,1659103212,6,0,0,0,0,0,0,0,0,0,0,0,0,0,0
19,16,98,3,1,790,780,0,0,0,1659103212,0,1659103227,15,0,0,0,0,0,0,0,0,0,0,0,0,0,0
19,17,181,3,1,789,805,0,0,0,1659103227,0,1659103234,7,0,0,0,0,0,0,0,0,0,0,0,0,0,0
19,18,192,3,1,950,915,0,0,0,1659103234,0,1659103246,12,0,0,0,0,0,0,0,0,0,0,0,0,0,0
19,19,185,3,1,1200,905,0,0,0,1659103246,0,1659103254,8,0,0,0,0,0,0,0,0,0,0,0,0,0,0
19,20,157,3,1,585,600,0,0,0,1659103254,0,1659103263,9,0,0,0,0,0,0,0,0,0,0,0,0,0,0
19,21,8,3,1,720,730,0,0,0,1659103263,0,1659103272,9,0,0,0,0,0,0,0,0,0,0,0,0,0,0
19,22,175,3,1,500,490,0,0,0,1659103272,0,1659103280,8,0,0,0,0,0,0,0,0,0,0,0,0,0,0
19,23,196,3,1,650,665,0,0,0,1659103280,0,1659103289,9,0,0,0,0,0,0,0,0,0,0,0,0,0,0
19,24,58,3,1,490,480,0,0,0,1659103290,0,1659103303,13,0,0,0,0,0,0,0,0,0,0,0,0,0,0
19,25,64,3,1,930,970,0,0,0,1659103303,0,1659103318,15,0,0,0,0,0,0,0,0,0,0,0,0,0,0
19,26,44,3,1,750,780,0,0,0,1659103318,0,1659103329,11,0,0,0,0,0,0,0,0,0,0,0,0,0,0
19,27,4,3,1,950,950,0,0,0,1659103329,0,1659103336,7,0,0,0,0,0,0,0,0,0,0,0,0,0,0
19,28,119,3,1,750,725,0,0,0,1659103336,0,1659103344,8,0,0,0,0,0,0,0,0,0,0,0,0,0,0
19,29,152,3,1,515,530,0,0,0,1659103344,0,1659103350,6,0,0,0,0,0,0,0,0,0,0,0,0,0,0
19,0,28,3,2,846,865,0,750,900,1659103369,1659103386,1659103388,19,2,0,0,0,0,0,0,0,0,0,0,0,0,0
19,1,124,3,2,430,445,0,400,500,1659103388,1659103400,1659103403,15,3,0,0,0,0,0,0,0,0,0,0,0,0,0
19,2,100,3,2,895,870,0,750,850,1659103403,1659103421,1659103422,19,1,0,0,0,0,0,0,0,0,0,0,0,0,0
19,3,65,3,2,450,440,0,400,500,1659103422,1659103437,1659103438,16,1,0,0,0,0,0,0,0,0,0,0,0,0,0
19,4,46,3,2,480,515,0,400,500,1659103438,1659103447,1659103448,10,1,0,0,0,0,0,0,0,0,0,0,0,0,0
19,5,189,3,2,420,405,0,400,500,1659103449,1659103456,1659103457,8,1,0,0,0,0,0,0,0,0,0,0,0,0,0
19,6,159,3,2,775,810,0,700,800,1659103457,1659103472,1659103473,16,1,0,0,0,0,0,0,0,0,0,0,0,0,0
19,7,155,3,2,450,460,0,400,500,1659103473,1659103482,1659103484,11,2,0,0,0,0,0,0,0,0,0,0,0,0,0
19,8,67,3,2,570,595,0,500,600,1659103484,1659103500,1659103501,17,1,0,0,0,0,0,0,0,0,0,0,0,0,0
19,9,120,3,2,522,510,0,450,550,1659103501,1659103515,1659103516,15,1,0,0,0,0,0,0,0,0,0,0,0,0,0
19,0,110,3,3,758,770,680,0,0,1659103557,1659103584,1659103603,46,19,2,4,11.470588235294,0,0,1659103595,0,true,700,1659103600,700,4,0.22222222222222
19,1,167,3,3,580,570,530,0,0,1659103604,1659103631,1659103639,35,8,1,5,9.4339622641509,0,1659103609,1659103595,1659103638,false,700,1659103600,530,4,0
19,2,195,3,3,1815,1155,1200,0,0,1659103639,1659103663,1659103675,36,12,1,6,51.25,6,1659103651,1659103595,1659103672,false,700,1659103600,1200,2,0
19,3,33,3,3,980,840,850,0,0,1659103676,1659103719,1659103725,49,6,1,5,15.294117647059,6,1659103689,1659103595,1659103724,false,700,1659103600,850,4,0
19,4,130,3,3,875,960,920,0,0,1659103725,1659103751,1659103766,41,15,1,5,4.8913043478261,6,1659103732,1659103761,1659103765,false,930,1659103600,920,4,0
19,5,34,3,3,457,550,500,0,0,1659103767,1659103810,1659103821,54,11,3,5,8.6,6,1659103798,1659103815,1659103765,true,520,1659103819,520,4,0.4
19,6,187,3,3,1550,1265,900,0,0,1659103821,1659103840,1659103855,34,15,6,5,72.222222222222,6,1659103829,1659103847,1659103765,true,1100,1659103854,1100,3,0.54794520547945
19,7,62,3,3,474,495,500,0,0,1659103855,1659103879,1659103883,28,4,1,5,5.2,4,1659103865,1659103847,1659103882,false,1100,1659103854,500,4,0
19,8,129,3,3,605,775,750,0,0,1659103884,1659103912,1659103920,36,8,1,4,19.333333333333,4,1659103888,1659103847,1659103919,false,1100,1659103854,750,3,0
19,9,72,3,3,806,835,700,0,0,1659103920,1659103946,1659103964,44,18,5,5,15.142857142857,4,1659103924,1659103958,1659103919,true,800,1659103961,800,5,0.74074074074074
19,10,60,3,3,870,900,780,0,0,1659103964,1659103983,1659103996,32,13,5,6,11.538461538462,4,1659103970,1659103988,1659103919,true,860,1659103994,860,5,0.66666666666667
19,11,29,3,3,1415,1125,1400,0,0,1659103996,1659104019,1659104033,37,14,5,5,1.0714285714286,4,1659104003,1659104028,1659103919,true,1350,1659104032,1350,4,0.18181818181818
19,12,5,3,3,791,685,600,0,0,1659104033,1659104068,1659104077,44,9,2,4,31.833333333333,5,1659104042,1659104073,1659103919,true,650,1659104076,650,4,0.58823529411765
19,13,36,3,3,790,815,700,0,0,1659104078,1659104109,1659104120,42,11,5,5,12.857142857143,5,1659104081,1659104114,1659103919,true,750,1659104117,750,4,0.43478260869565
19,14,40,3,3,1950,1030,1200,0,0,1659104120,1659104137,1659104146,26,9,5,5,62.5,5,1659104126,1659104114,1659104143,false,750,1659104117,1200,2,0
19,15,197,3,3,635,650,650,0,0,1659104146,1659104172,1659104177,31,5,1,5,2.3076923076923,5,1659104152,1659104114,1659104176,false,750,1659104117,650,5,0
19,16,56,3,3,405,630,520,0,0,1659104177,1659104204,1659104213,36,9,6,6,22.115384615385,5,1659104179,1659104208,1659104176,true,580,1659104212,580,2,0.54545454545455
19,17,146,3,3,1300,1060,940,0,0,1659104214,1659104237,1659104249,35,12,2,5,38.297872340426,5,1659104219,1659104241,1659104176,true,1000,1659104244,1000,3,0.5
19,18,136,3,3,690,790,800,0,0,1659104249,1659104268,1659104274,25,6,1,4,13.75,5,1659104256,1659104241,1659104273,false,1000,1659104244,800,4,0
19,19,63,3,3,1300,1120,850,0,0,1659104275,1659104292,1659104307,32,15,7,5,52.941176470588,5,1659104279,1659104301,1659104273,true,950,1659104306,950,3,0.37037037037037
19,20,104,3,3,670,735,750,0,0,1659104307,1659104324,1659104334,27,10,1,4,10.666666666667,5,1659104311,1659104301,1659104333,false,950,1659104306,750,4,0
19,21,117,3,3,560,700,800,0,0,1659104334,1659104360,1659104366,32,6,5,4,30,5,1659104336,1659104301,1659104365,false,950,1659104306,800,2,0
19,22,113,3,3,750,820,900,0,0,1659104366,1659104388,1659104396,30,8,4,5,16.666666666667,5,1659104374,1659104301,1659104395,false,950,1659104306,900,3,0
19,23,84,3,3,1385,945,950,0,0,1659104396,1659104410,1659104414,18,4,1,6,45.789473684211,5,1659104400,1659104301,1659104414,false,950,1659104306,950,2,0
19,24,115,3,3,405,385,500,0,0,1659104415,1659104437,1659104448,33,11,6,5,19,5,1659104418,1659104441,1659104414,true,475,1659104446,475,4,0.21739130434783
19,25,164,3,3,1150,1200,1200,0,0,1659104448,1659104465,1659104472,24,7,1,6,4.1666666666667,5,1659104452,1659104441,1659104469,false,475,1659104446,1200,4,0
19,26,176,3,3,390,450,500,0,0,1659104472,1659104512,1659104518,46,6,2,5,22,5,1659104479,1659104441,1659104517,false,475,1659104446,500,3,0
19,27,156,3,3,430,580,475,0,0,1659104518,1659104539,1659104544,26,5,6,6,9.4736842105263,5,1659104527,1659104441,1659104543,false,475,1659104446,475,4,0
19,28,114,3,3,1340,980,980,0,0,1659104545,1659104559,1659104565,20,6,1,5,36.734693877551,5,1659104549,1659104441,1659104564,false,475,1659104446,980,3,0
19,29,144,3,3,329,615,435,0,0,1659104565,1659104583,1659104595,30,12,7,5,24.367816091954,5,1659104568,1659104589,1659104564,true,450,1659104592,450,2,0.083333333333333
21,0,64,3,1,930,970,0,0,0,1659111199,0,1659111241,42,0,0,0,0,0,0,0,0,0,0,0,0,0,0
21,1,122,3,1,725,715,0,0,0,1659111241,0,1659111270,29,0,0,0,0,0,0,0,0,0,0,0,0,0,0
21,2,45,3,1,870,890,0,0,0,1659111270,0,1659111296,26,0,0,0,0,0,0,0,0,0,0,0,0,0,0
21,3,98,3,1,790,780,0,0,0,1659111296,0,1659111310,14,0,0,0,0,0,0,0,0,0,0,0,0,0,0
21,4,8,3,1,720,730,0,0,0,1659111311,0,1659111452,141,0,0,0,0,0,0,0,0,0,0,0,0,0,0
21,5,152,3,1,515,530,0,0,0,1659111452,0,1659111475,23,0,0,0,0,0,0,0,0,0,0,0,0,0,0
21,6,181,3,1,789,805,0,0,0,1659111475,0,1659111503,28,0,0,0,0,0,0,0,0,0,0,0,0,0,0
21,7,147,3,1,420,415,0,0,0,1659111503,0,1659111526,23,0,0,0,0,0,0,0,0,0,0,0,0,0,0
21,8,41,3,1,817,810,0,0,0,1659111526,0,1659111556,30,0,0,0,0,0,0,0,0,0,0,0,0,0,0
21,9,170,3,1,460,440,0,0,0,1659111556,0,1659111563,7,0,0,0,0,0,0,0,0,0,0,0,0,0,0
21,10,19,3,1,400,405,0,0,0,1659111563,0,1659111575,12,0,0,0,0,0,0,0,0,0,0,0,0,0,0
21,11,75,3,1,994,970,0,0,0,1659111575,0,1659111595,20,0,0,0,0,0,0,0,0,0,0,0,0,0,0
21,12,175,3,1,500,490,0,0,0,1659111595,0,1659111651,56,0,0,0,0,0,0,0,0,0,0,0,0,0,0
21,13,185,3,1,1200,905,0,0,0,1659111652,0,1659111663,11,0,0,0,0,0,0,0,0,0,0,0,0,0,0
21,14,119,3,1,750,725,0,0,0,1659111663,0,1659111680,17,0,0,0,0,0,0,0,0,0,0,0,0,0,0
21,15,163,3,1,450,450,0,0,0,1659111680,0,1659111690,10,0,0,0,0,0,0,0,0,0,0,0,0,0,0
21,16,58,3,1,490,480,0,0,0,1659111690,0,1659111729,39,0,0,0,0,0,0,0,0,0,0,0,0,0,0
21,17,196,3,1,650,665,0,0,0,1659111729,0,1659111756,27,0,0,0,0,0,0,0,0,0,0,0,0,0,0
21,18,139,3,1,490,490,0,0,0,1659111756,0,1659111772,16,0,0,0,0,0,0,0,0,0,0,0,0,0,0
21,19,157,3,1,585,600,0,0,0,1659111772,0,1659111789,17,0,0,0,0,0,0,0,0,0,0,0,0,0,0
21,20,192,3,1,950,915,0,0,0,1659111789,0,1659111818,29,0,0,0,0,0,0,0,0,0,0,0,0,0,0
21,21,10,3,1,700,700,0,0,0,1659111818,0,1659111841,23,0,0,0,0,0,0,0,0,0,0,0,0,0,0
21,22,44,3,1,750,780,0,0,0,1659111841,0,1659111860,19,0,0,0,0,0,0,0,0,0,0,0,0,0,0
21,23,137,3,1,659,665,0,0,0,1659111860,0,1659111899,39,0,0,0,0,0,0,0,0,0,0,0,0,0,0
21,24,106,3,1,457,470,0,0,0,1659111899,0,1659111906,7,0,0,0,0,0,0,0,0,0,0,0,0,0,0
21,25,32,3,1,895,880,0,0,0,1659111906,0,1659111930,24,0,0,0,0,0,0,0,0,0,0,0,0,0,0
21,26,86,3,1,850,890,0,0,0,1659111930,0,1659111945,15,0,0,0,0,0,0,0,0,0,0,0,0,0,0
21,27,3,3,1,640,645,0,0,0,1659111945,0,1659111955,10,0,0,0,0,0,0,0,0,0,0,0,0,0,0
21,28,4,3,1,950,950,0,0,0,1659111955,0,1659111979,24,0,0,0,0,0,0,0,0,0,0,0,0,0,0
21,29,105,3,1,716,745,0,0,0,1659111979,0,1659111997,18,0,0,0,0,0,0,0,0,0,0,0,0,0,0
21,0,120,3,2,522,510,0,450,540,1659112015,1659112045,1659112048,33,3,0,0,0,0,0,0,0,0,0,0,0,0,0
21,1,65,3,2,450,440,0,400,490,1659112048,1659112068,1659112069,21,1,0,0,0,0,0,0,0,0,0,0,0,0,0
21,2,67,3,2,570,595,0,400,470,1659112069,1659112082,1659112085,16,3,0,0,0,0,0,0,0,0,0,0,0,0,0
21,3,189,3,2,420,405,0,550,650,1659112085,1659112109,1659112110,25,1,0,0,0,0,0,0,0,0,0,0,0,0,0
21,4,100,3,2,895,870,0,800,890,1659112110,1659112138,1659112144,34,6,0,0,0,0,0,0,0,0,0,0,0,0,0
21,5,46,3,2,480,515,0,400,500,1659112144,1659112155,1659112156,12,1,0,0,0,0,0,0,0,0,0,0,0,0,0
21,6,155,3,2,450,460,0,400,550,1659112156,1659112168,1659112170,14,2,0,0,0,0,0,0,0,0,0,0,0,0,0
21,7,159,3,2,775,810,0,600,650,1659112170,1659112182,1659112184,14,2,0,0,0,0,0,0,0,0,0,0,0,0,0
21,8,124,3,2,430,445,0,500,650,1659112184,1659112214,1659112217,33,3,0,0,0,0,0,0,0,0,0,0,0,0,0
21,9,28,3,2,846,865,0,800,870,1659112217,1659112236,1659112237,20,1,0,0,0,0,0,0,0,0,0,0,0,0,0
21,0,110,3,3,758,770,610,0,0,1659112297,1659112339,1659112414,117,75,2,5,24.262295081967,0,0,1659112373,0,true,700,1659112410,700,4,0.5625
21,1,167,3,3,580,570,550,0,0,1659112414,1659112473,1659112493,79,20,2,5,5.4545454545455,0,1659112436,1659112373,1659112490,false,700,1659112410,550,4,0
21,2,176,3,3,390,450,450,0,0,1659112493,1659112554,1659112569,76,15,2,6,13.333333333333,6,1659112514,1659112373,1659112564,false,700,1659112410,450,4,0
21,3,114,3,3,1340,980,950,0,0,1659112569,1659112610,1659112632,63,22,2,5,41.052631578947,6,1659112577,1659112625,1659112564,true,970,1659112629,970,3,0.66666666666667
21,4,63,3,3,1300,1120,1100,0,0,1659112632,1659112678,1659112700,68,22,2,5,18.181818181818,6,1659112643,1659112692,1659112564,true,1200,1659112697,1200,4,5
21,5,187,3,3,1550,1265,1300,0,0,1659112700,1659112733,1659112745,45,12,2,5,19.230769230769,6,1659112708,1659112692,1659112742,false,1200,1659112697,1300,4,0
21,6,33,3,3,980,840,890,0,0,1659112745,1659112800,1659112812,67,12,2,5,10.112359550562,6,1659112756,1659112692,1659112809,false,1200,1659112697,890,4,0
21,7,164,3,3,1150,1200,1500,0,0,1659112812,1659112868,1659112892,80,24,7,6,23.333333333333,3,1659112847,1659112884,1659112879,true,1450,1659112889,1450,3,0.16666666666667
21,8,84,3,3,1385,945,950,0,0,1659112892,1659112939,1659112948,56,9,2,5,45.789473684211,3,1659112899,1659112884,1659112947,false,1450,1659112889,950,2,0
21,9,115,3,3,405,385,450,0,0,1659112948,1659112984,1659113006,58,22,2,6,10,3,1659112959,1659112999,1659112947,true,400,1659113005,400,5,0.76923076923077
21,10,129,3,3,605,775,500,0,0,1659113006,1659113041,1659113068,62,27,6,1,21,3,1659113013,1659113049,1659112947,true,710,1659113067,710,4,0.76363636363636
21,11,5,3,3,791,685,580,0,0,1659113068,1659113096,1659113138,70,42,6,5,36.379310344828,3,1659113078,1659113115,1659112947,true,650,1659113136,650,4,0.66666666666667
21,12,104,3,3,670,735,750,0,0,1659113138,1659113228,1659113241,103,13,1,5,10.666666666667,3,1659113160,1659113115,1659113240,false,650,1659113136,750,4,0
21,13,146,3,3,1300,1060,1300,0,0,1659113241,1659113271,1659113288,47,17,7,6,0,3,1659113243,1659113278,1659113240,true,1250,1659113286,1250,5,0.20833333333333
21,14,195,3,3,1815,1155,1300,0,0,1659113288,1659113341,1659113363,75,22,5,6,39.615384615385,3,1659113292,1659113356,1659113240,true,1250,1659113361,1250,2,0.3448275862069
21,15,62,3,3,474,495,500,0,0,1659113363,1659113489,1659113498,135,9,1,5,5.2,3,1659113372,1659113356,1659113497,false,1250,1659113361,500,4,0
21,16,29,3,3,1415,1125,1200,0,0,1659113498,1659113525,1659113537,39,12,5,5,17.916666666667,3,1659113509,1659113356,1659113535,false,1250,1659113361,1200,4,0
21,17,156,3,3,430,580,550,0,0,1659113537,1659113567,1659113574,37,7,2,5,21.818181818182,5,1659113543,1659113356,1659113573,false,1250,1659113361,550,3,0
21,18,56,3,3,405,630,450,0,0,1659113574,1659113615,1659113633,59,18,7,5,10,5,1659113582,1659113626,1659113573,true,580,1659113632,580,2,0.72222222222222
21,19,144,3,3,329,615,450,0,0,1659113633,1659113678,1659113692,59,14,7,5,26.888888888889,5,1659113643,1659113626,1659113691,false,580,1659113632,450,2,0
21,20,197,3,3,635,650,650,0,0,1659113692,1659113705,1659113720,28,15,1,6,2.3076923076923,5,1659113695,1659113626,1659113710,false,580,1659113632,650,5,0
21,21,117,3,3,560,700,550,0,0,1659113720,1659113756,1659113777,57,21,6,5,1.8181818181818,5,1659113725,1659113772,1659113710,true,570,1659113776,570,5,0.13333333333333
21,22,130,3,3,875,960,850,0,0,1659113777,1659113810,1659113830,53,20,5,6,2.9411764705882,3,1659113787,1659113816,1659113710,true,870,1659113825,870,5,0.18181818181818
21,23,40,3,3,1950,1030,1300,0,0,1659113830,1659113868,1659113894,64,26,7,6,50,3,1659113836,1659113883,1659113710,true,1210,1659113893,1210,2,0.33333333333333
21,24,136,3,3,690,790,600,0,0,1659113894,1659113931,1659113944,50,13,6,6,15,3,1659113902,1659113939,1659113710,true,650,1659113943,650,4,0.26315789473684
21,25,60,3,3,870,900,850,0,0,1659113944,1659113974,1659113997,53,23,2,6,2.3529411764706,3,1659113963,1659113987,1659113710,true,910,1659113996,910,4,1.2
21,26,36,3,3,790,815,600,0,0,1659113997,1659114026,1659114061,64,35,7,5,31.666666666667,3,1659114004,1659114055,1659114045,true,650,1659114059,650,4,0.23255813953488
21,27,34,3,3,457,550,550,0,0,1659114061,1659114104,1659114110,49,6,1,6,16.909090909091,4,1659114076,1659114055,1659114109,false,650,1659114059,550,3,0
21,28,72,3,3,806,835,700,0,0,1659114110,1659114130,1659114165,55,35,5,6,15.142857142857,4,1659114114,1659114153,1659114109,true,820,1659114164,820,5,0.88888888888889
21,29,113,3,3,750,820,850,0,0,1659114165,1659114196,1659114203,38,7,5,5,11.764705882353,4,1659114171,1659114153,1659114202,false,820,1659114164,850,4,0
23,0,119,3,1,750,725,0,0,0,1659118293,0,1659118316,23,0,0,0,0,0,0,0,0,0,0,0,0,0,0
23,1,185,3,1,1200,905,0,0,0,1659118317,0,1659118360,43,0,0,0,0,0,0,0,0,0,0,0,0,0,0
23,2,196,3,1,650,665,0,0,0,1659118360,0,1659118372,12,0,0,0,0,0,0,0,0,0,0,0,0,0,0
23,3,137,3,1,659,665,0,0,0,1659118372,0,1659118389,17,0,0,0,0,0,0,0,0,0,0,0,0,0,0
23,4,170,3,1,460,440,0,0,0,1659118390,0,1659118401,11,0,0,0,0,0,0,0,0,0,0,0,0,0,0
23,5,3,3,1,640,645,0,0,0,1659118402,0,1659118412,10,0,0,0,0,0,0,0,0,0,0,0,0,0,0
23,6,44,3,1,750,780,0,0,0,1659118412,0,1659118423,11,0,0,0,0,0,0,0,0,0,0,0,0,0,0
23,7,19,3,1,400,405,0,0,0,1659118423,0,1659118432,9,0,0,0,0,0,0,0,0,0,0,0,0,0,0
23,8,98,3,1,790,780,0,0,0,1659118432,0,1659118443,11,0,0,0,0,0,0,0,0,0,0,0,0,0,0
23,9,32,3,1,895,880,0,0,0,1659118443,0,1659118463,20,0,0,0,0,0,0,0,0,0,0,0,0,0,0
23,10,157,3,1,585,600,0,0,0,1659118463,0,1659118475,12,0,0,0,0,0,0,0,0,0,0,0,0,0,0
23,11,181,3,1,789,805,0,0,0,1659118475,0,1659118486,11,0,0,0,0,0,0,0,0,0,0,0,0,0,0
23,12,10,3,1,700,700,0,0,0,1659118487,0,1659118497,10,0,0,0,0,0,0,0,0,0,0,0,0,0,0
23,13,58,3,1,490,480,0,0,0,1659118497,0,1659118505,8,0,0,0,0,0,0,0,0,0,0,0,0,0,0
23,14,163,3,1,450,450,0,0,0,1659118505,0,1659118514,9,0,0,0,0,0,0,0,0,0,0,0,0,0,0
23,15,8,3,1,720,730,0,0,0,1659118514,0,1659118521,7,0,0,0,0,0,0,0,0,0,0,0,0,0,0
23,16,106,3,1,457,470,0,0,0,1659118522,0,1659118531,9,0,0,0,0,0,0,0,0,0,0,0,0,0,0
23,17,122,3,1,725,715,0,0,0,1659118531,0,1659118539,8,0,0,0,0,0,0,0,0,0,0,0,0,0,0
23,18,152,3,1,515,530,0,0,0,1659118539,0,1659118549,10,0,0,0,0,0,0,0,0,0,0,0,0,0,0
23,19,86,3,1,850,890,0,0,0,1659118549,0,1659118557,8,0,0,0,0,0,0,0,0,0,0,0,0,0,0
23,20,45,3,1,870,890,0,0,0,1659118558,0,1659118564,6,0,0,0,0,0,0,0,0,0,0,0,0,0,0
23,21,105,3,1,716,745,0,0,0,1659118564,0,1659118575,11,0,0,0,0,0,0,0,0,0,0,0,0,0,0
23,22,175,3,1,500,490,0,0,0,1659118575,0,1659118580,5,0,0,0,0,0,0,0,0,0,0,0,0,0,0
23,23,147,3,1,420,415,0,0,0,1659118580,0,1659118584,4,0,0,0,0,0,0,0,0,0,0,0,0,0,0
23,24,41,3,1,817,810,0,0,0,1659118585,0,1659118588,3,0,0,0,0,0,0,0,0,0,0,0,0,0,0
23,25,64,3,1,930,970,0,0,0,1659118588,0,1659118601,13,0,0,0,0,0,0,0,0,0,0,0,0,0,0
23,26,75,3,1,994,970,0,0,0,1659118601,0,1659118607,6,0,0,0,0,0,0,0,0,0,0,0,0,0,0
23,27,192,3,1,950,915,0,0,0,1659118608,0,1659118616,8,0,0,0,0,0,0,0,0,0,0,0,0,0,0
23,28,139,3,1,490,490,0,0,0,1659118617,0,1659118672,55,0,0,0,0,0,0,0,0,0,0,0,0,0,0
23,29,4,3,1,950,950,0,0,0,1659118672,0,1659118676,4,0,0,0,0,0,0,0,0,0,0,0,0,0,0
23,0,124,3,2,430,445,0,400,800,1659118720,1659118782,1659118787,67,5,0,0,0,0,0,0,0,0,0,0,0,0,0
23,1,28,3,2,846,865,0,700,1000,1659118788,1659118876,1659118877,89,1,0,0,0,0,0,0,0,0,0,0,0,0,0
23,2,67,3,2,570,595,0,500,700,1659118878,1659118952,1659118955,77,3,0,0,0,0,0,0,0,0,0,0,0,0,0
23,3,189,3,2,420,405,0,450,600,1659118955,1659119188,1659119189,234,1,0,0,0,0,0,0,0,0,0,0,0,0,0
23,4,155,3,2,450,460,0,400,600,1659119190,1659120450,1659120455,1265,5,0,0,0,0,0,0,0,0,0,0,0,0,0
23,5,65,3,2,450,440,0,400,450,1659120455,1659120521,1659120524,69,3,0,0,0,0,0,0,0,0,0,0,0,0,0
23,6,100,3,2,895,870,0,700,900,1659120525,1659120756,1659120759,234,3,0,0,0,0,0,0,0,0,0,0,0,0,0
23,7,46,3,2,480,515,0,400,550,1659120760,1659120829,1659120830,70,1,0,0,0,0,0,0,0,0,0,0,0,0,0
24,0,181,3,1,789,805,0,0,0,1659120852,0,1659120864,12,0,0,0,0,0,0,0,0,0,0,0,0,0,0
24,1,192,3,1,950,915,0,0,0,1659120864,0,1659120866,2,0,0,0,0,0,0,0,0,0,0,0,0,0,0
24,2,122,3,1,725,715,0,0,0,1659120866,0,1659120868,2,0,0,0,0,0,0,0,0,0,0,0,0,0,0
24,3,75,3,1,994,970,0,0,0,1659120868,0,1659120870,2,0,0,0,0,0,0,0,0,0,0,0,0,0,0
24,4,152,3,1,515,530,0,0,0,1659120870,0,1659120873,3,0,0,0,0,0,0,0,0,0,0,0,0,0,0
24,5,119,3,1,750,725,0,0,0,1659120873,0,1659120875,2,0,0,0,0,0,0,0,0,0,0,0,0,0,0
24,6,64,3,1,930,970,0,0,0,1659120875,0,1659120876,1,0,0,0,0,0,0,0,0,0,0,0,0,0,0
24,7,19,3,1,400,405,0,0,0,1659120876,0,1659120880,4,0,0,0,0,0,0,0,0,0,0,0,0,0,0
24,8,4,3,1,950,950,0,0,0,1659120880,0,1659120882,2,0,0,0,0,0,0,0,0,0,0,0,0,0,0
24,9,175,3,1,500,490,0,0,0,1659120882,0,1659120884,2,0,0,0,0,0,0,0,0,0,0,0,0,0,0
24,10,45,3,1,870,890,0,0,0,1659120884,0,1659120886,2,0,0,0,0,0,0,0,0,0,0,0,0,0,0
24,11,196,3,1,650,665,0,0,0,1659120886,0,1659120888,2,0,0,0,0,0,0,0,0,0,0,0,0,0,0
24,12,8,3,1,720,730,0,0,0,1659120888,0,1659120890,2,0,0,0,0,0,0,0,0,0,0,0,0,0,0
24,13,139,3,1,490,490,0,0,0,1659120890,0,1659120891,1,0,0,0,0,0,0,0,0,0,0,0,0,0,0
24,14,185,3,1,1200,905,0,0,0,1659120891,0,1659120896,5,0,0,0,0,0,0,0,0,0,0,0,0,0,0
24,15,163,3,1,450,450,0,0,0,1659120896,0,1659120897,1,0,0,0,0,0,0,0,0,0,0,0,0,0,0
24,16,3,3,1,640,645,0,0,0,1659120897,0,1659120899,2,0,0,0,0,0,0,0,0,0,0,0,0,0,0
24,17,170,3,1,460,440,0,0,0,1659120899,0,1659120901,2,0,0,0,0,0,0,0,0,0,0,0,0,0,0
24,18,41,3,1,817,810,0,0,0,1659120901,0,1659120902,1,0,0,0,0,0,0,0,0,0,0,0,0,0,0
24,19,86,3,1,850,890,0,0,0,1659120902,0,1659120904,2,0,0,0,0,0,0,0,0,0,0,0,0,0,0
24,20,106,3,1,457,470,0,0,0,1659120904,0,1659120905,1,0,0,0,0,0,0,0,0,0,0,0,0,0,0
24,21,10,3,1,700,700,0,0,0,1659120905,0,1659120907,2,0,0,0,0,0,0,0,0,0,0,0,0,0,0
24,22,32,3,1,895,880,0,0,0,1659120907,0,1659120910,3,0,0,0,0,0,0,0,0,0,0,0,0,0,0
24,23,147,3,1,420,415,0,0,0,1659120910,0,1659120912,2,0,0,0,0,0,0,0,0,0,0,0,0,0,0
24,24,58,3,1,490,480,0,0,0,1659120912,0,1659120914,2,0,0,0,0,0,0,0,0,0,0,0,0,0,0
24,25,98,3,1,790,780,0,0,0,1659120914,0,1659120915,1,0,0,0,0,0,0,0,0,0,0,0,0,0,0
24,26,137,3,1,659,665,0,0,0,1659120915,0,1659120917,2,0,0,0,0,0,0,0,0,0,0,0,0,0,0
24,27,157,3,1,585,600,0,0,0,1659120917,0,1659120918,1,0,0,0,0,0,0,0,0,0,0,0,0,0,0
24,28,44,3,1,750,780,0,0,0,1659120918,0,1659120920,2,0,0,0,0,0,0,0,0,0,0,0,0,0,0
24,29,105,3,1,716,745,0,0,0,1659120920,0,1659120921,1,0,0,0,0,0,0,0,0,0,0,0,0,0,0
23,8,120,3,2,522,510,0,400,600,1659120831,1659120922,1659120923,92,1,0,0,0,0,0,0,0,0,0,0,0,0,0
24,0,159,3,2,775,810,0,300,500,1659120925,1659120936,1659120937,12,1,0,0,0,0,0,0,0,0,0,0,0,0,0
24,1,120,3,2,522,510,0,600,700,1659120937,1659120945,1659120947,10,2,0,0,0,0,0,0,0,0,0,0,0,0,0
24,2,155,3,2,450,460,0,500,600,1659120947,1659120955,1659120956,9,1,0,0,0,0,0,0,0,0,0,0,0,0,0
24,3,65,3,2,450,440,0,600,700,1659120956,1659120963,1659120964,8,1,0,0,0,0,0,0,0,0,0,0,0,0,0
23,9,159,3,2,775,810,0,700,850,1659120924,1659120967,1659120968,44,1,0,0,0,0,0,0,0,0,0,0,0,0,0
24,4,46,3,2,480,515,0,700,900,1659120964,1659120970,1659120971,7,1,0,0,0,0,0,0,0,0,0,0,0,0,0
24,5,28,3,2,846,865,0,600,700,1659120971,1659120978,1659120979,8,1,0,0,0,0,0,0,0,0,0,0,0,0,0
24,6,189,3,2,420,405,0,600,700,1659120979,1659120986,1659120987,8,1,0,0,0,0,0,0,0,0,0,0,0,0,0
24,7,124,3,2,430,445,0,500,600,1659120987,1659120995,1659120996,9,1,0,0,0,0,0,0,0,0,0,0,0,0,0
24,8,67,3,2,570,595,0,800,900,1659120996,1659121004,1659121005,9,1,0,0,0,0,0,0,0,0,0,0,0,0,0
24,9,100,3,2,895,870,0,1100,1300,1659121005,1659121013,1659121014,9,1,0,0,0,0,0,0,0,0,0,0,0,0,0
24,0,110,3,3,758,770,600,0,0,1659121021,1659121039,1659121056,35,17,4,6,26.333333333333,0,0,0,1659121054,false,-1,0,600,3,0
24,1,167,3,3,580,570,800,0,0,1659121056,1659121074,1659121083,27,9,7,5,27.5,0,1659121062,0,1659121080,false,-1,0,800,2,0
23,0,110,3,3,758,770,750,0,0,1659120990,1659121495,1659121534,544,39,2,5,1.0666666666667,0,0,0,1659121530,false,-1,0,750,5,0
23,1,167,3,3,580,570,500,0,0,1659121535,1659121642,1659121666,131,24,4,3,16,0,1659121556,1659121653,1659121530,true,550,1659121662,550,4,0.71428571428571
23,2,117,3,3,560,700,650,0,0,1659121667,1659121812,1659121838,171,26,4,4,13.846153846154,4,1659121681,1659121653,1659121837,false,550,1659121662,650,4,0
23,3,29,3,3,1415,1125,2000,0,0,1659121839,1659121894,1659121905,66,11,4,6,29.25,4,1659121846,1659121653,1659121903,false,550,1659121662,2000,2,0
23,4,144,3,3,329,615,400,0,0,1659121906,1659122007,1659122021,115,14,6,6,17.75,4,1659121919,1659121653,1659122019,false,550,1659121662,400,3,0
23,5,33,3,3,980,840,850,0,0,1659122022,1659122114,1659122123,101,9,1,6,15.294117647059,4,1659122030,1659121653,1659122120,false,550,1659121662,850,4,0
23,6,197,3,3,635,650,660,0,0,1659122123,1659122235,1659122241,118,6,1,6,3.7878787878788,4,1659122134,1659121653,1659122240,false,550,1659121662,660,5,0
23,7,72,3,3,806,835,800,0,0,1659122241,1659122360,1659122386,145,26,3,5,0.75,3,1659122255,1659122377,1659122240,true,820,1659122384,820,5,0.57142857142857
23,8,104,3,3,670,735,750,0,0,1659122387,1659122585,1659122594,207,9,2,4,10.666666666667,3,1659122395,1659122377,1659122593,false,820,1659122384,750,4,0
23,9,156,3,3,430,580,500,0,0,1659122595,1659122742,1659122756,161,14,5,1,14,3,1659122602,1659122749,1659122750,false,820,1659122384,500,4,0
23,10,176,3,3,390,450,450,0,0,1659122757,1659123727,1659123733,976,6,1,3,13.333333333333,3,1659122763,1659122749,1659123732,false,820,1659122384,450,4,0
23,11,62,3,3,474,495,500,0,0,1659123735,1659124282,1659124288,553,6,1,3,5.2,3,1659123739,1659122749,1659124287,false,820,1659122384,500,4,0
23,12,113,3,3,750,820,850,0,0,1659124289,1659124752,1659124758,469,6,4,4,11.764705882353,4,1659124297,1659122749,1659124757,false,820,1659122384,850,4,0
23,13,63,3,3,1300,1120,1000,0,0,1659124760,1659124877,1659124890,130,13,4,4,30,4,1659124763,1659124884,1659124889,false,820,1659122384,1000,3,0
23,14,130,3,3,875,960,1000,0,0,1659124891,1659124927,1659124932,41,5,4,4,12.5,4,1659124897,1659124884,1659124931,false,820,1659122384,1000,4,0
23,15,36,3,3,790,815,750,0,0,1659124932,1659125032,1659125040,108,8,4,4,5.3333333333333,4,1659124944,1659124884,1659125039,false,820,1659122384,750,4,0
23,16,56,3,3,405,630,460,0,0,1659125041,1659125951,1659125960,919,9,7,4,11.95652173913,4,1659125054,1659124884,1659125959,false,820,1659122384,460,4,0
23,17,146,3,3,1300,1060,990,0,0,1659125961,1659126057,1659126065,104,8,4,4,31.313131313131,4,1659125967,1659124884,1659126063,false,820,1659122384,990,3,0
23,18,136,3,3,690,790,830,0,0,1659126065,1659126150,1659126164,99,14,3,3,16.867469879518,4,1659126068,1659126155,1659126063,true,815,1659126163,815,3,0.375
23,19,115,3,3,405,385,450,0,0,1659126164,1659126218,1659126223,59,5,4,4,10,4,1659126171,1659126155,1659126222,false,815,1659126163,450,4,0
23,20,187,3,3,1550,1265,1100,0,0,1659126223,1659126635,1659126643,420,8,4,2,40.909090909091,4,1659126227,1659126155,1659126641,false,815,1659126163,1100,3,0
23,21,60,3,3,870,900,870,0,0,1659126643,1659126692,1659126696,53,4,4,7,0,4,1659126647,1659126155,1659126695,false,815,1659126163,870,5,0
23,22,40,3,3,1950,1030,1300,0,0,1659126696,1659126738,1659126755,59,17,4,6,50,4,1659126707,1659126746,1659126695,true,1150,1659126751,1150,2,0.55555555555556
23,23,114,3,3,1340,980,1000,0,0,1659126755,1659126839,1659126843,88,4,4,5,34,4,1659126762,1659126746,1659126842,false,1150,1659126751,1000,3,0
23,24,195,3,3,1815,1155,1500,0,0,1659126843,1659126861,1659126882,39,21,4,4,21,4,1659126845,1659126877,1659126842,true,1350,1659126881,1350,3,0.43478260869565
23,25,84,3,3,1385,945,900,0,0,1659126882,1659126999,1659127003,121,4,4,2,53.888888888889,4,1659126887,1659126877,1659127003,false,1350,1659126881,900,2,0
23,26,34,3,3,457,550,550,0,0,1659127004,1659127082,1659127088,84,6,1,4,16.909090909091,4,1659127009,1659126877,1659127087,false,1350,1659126881,550,3,0
23,27,129,3,3,605,775,650,0,0,1659127089,1659127168,1659127172,83,4,4,4,6.9230769230769,4,1659127094,1659126877,1659127171,false,1350,1659126881,650,4,0
23,28,164,3,3,1150,1200,1200,0,0,1659127172,1659127197,1659127204,32,7,1,4,4.1666666666667,4,1659127179,1659126877,1659127202,false,1350,1659126881,1200,4,0
23,29,5,3,3,791,685,630,0,0,1659127204,1659127289,1659127294,90,5,4,5,25.555555555556,4,1659127206,1659126877,1659127293,false,1350,1659126881,630,3,0
26,0,157,3,1,585,600,0,0,0,1659172237,0,1659172386,149,0,0,0,0,0,0,0,0,0,0,0,0,0,0
26,1,98,3,1,790,780,0,0,0,1659172386,0,1659172427,41,0,0,0,0,0,0,0,0,0,0,0,0,0,0
26,2,185,3,1,1200,905,0,0,0,1659172427,0,1659172462,35,0,0,0,0,0,0,0,0,0,0,0,0,0,0
26,3,122,3,1,725,715,0,0,0,1659172462,0,1659172498,36,0,0,0,0,0,0,0,0,0,0,0,0,0,0
26,4,19,3,1,400,405,0,0,0,1659172498,0,1659172546,48,0,0,0,0,0,0,0,0,0,0,0,0,0,0
26,5,163,3,1,450,450,0,0,0,1659172546,0,1659172603,57,0,0,0,0,0,0,0,0,0,0,0,0,0,0
26,6,106,3,1,457,470,0,0,0,1659172603,0,1659172655,52,0,0,0,0,0,0,0,0,0,0,0,0,0,0
26,7,192,3,1,950,915,0,0,0,1659172655,0,1659172692,37,0,0,0,0,0,0,0,0,0,0,0,0,0,0
26,8,147,3,1,420,415,0,0,0,1659172692,0,1659172714,22,0,0,0,0,0,0,0,0,0,0,0,0,0,0
26,9,105,3,1,716,745,0,0,0,1659172714,0,1659172766,52,0,0,0,0,0,0,0,0,0,0,0,0,0,0
26,10,75,3,1,994,970,0,0,0,1659172766,0,1659172818,52,0,0,0,0,0,0,0,0,0,0,0,0,0,0
26,11,181,3,1,789,805,0,0,0,1659172818,0,1659172894,76,0,0,0,0,0,0,0,0,0,0,0,0,0,0
26,12,58,3,1,490,480,0,0,0,1659172894,0,1659172959,65,0,0,0,0,0,0,0,0,0,0,0,0,0,0
26,13,45,3,1,870,890,0,0,0,1659172960,0,1659172984,24,0,0,0,0,0,0,0,0,0,0,0,0,0,0
26,14,152,3,1,515,530,0,0,0,1659172984,0,1659173004,20,0,0,0,0,0,0,0,0,0,0,0,0,0,0
26,15,64,3,1,930,970,0,0,0,1659173004,0,1659173022,18,0,0,0,0,0,0,0,0,0,0,0,0,0,0
26,16,86,3,1,850,890,0,0,0,1659173022,0,1659173031,9,0,0,0,0,0,0,0,0,0,0,0,0,0,0
26,17,10,3,1,700,700,0,0,0,1659173031,0,1659173048,17,0,0,0,0,0,0,0,0,0,0,0,0,0,0
26,18,170,3,1,460,440,0,0,0,1659173048,0,1659173055,7,0,0,0,0,0,0,0,0,0,0,0,0,0,0
26,19,119,3,1,750,725,0,0,0,1659173055,0,1659173063,8,0,0,0,0,0,0,0,0,0,0,0,0,0,0
26,20,139,3,1,490,490,0,0,0,1659173063,0,1659173074,11,0,0,0,0,0,0,0,0,0,0,0,0,0,0
26,21,8,3,1,720,730,0,0,0,1659173074,0,1659173099,25,0,0,0,0,0,0,0,0,0,0,0,0,0,0
26,22,41,3,1,817,810,0,0,0,1659173099,0,1659173104,5,0,0,0,0,0,0,0,0,0,0,0,0,0,0
26,23,196,3,1,650,665,0,0,0,1659173105,0,1659173114,9,0,0,0,0,0,0,0,0,0,0,0,0,0,0
26,24,3,3,1,640,645,0,0,0,1659173115,0,1659173125,10,0,0,0,0,0,0,0,0,0,0,0,0,0,0
26,25,175,3,1,500,490,0,0,0,1659173125,0,1659173137,12,0,0,0,0,0,0,0,0,0,0,0,0,0,0
26,26,44,3,1,750,780,0,0,0,1659173137,0,1659173151,14,0,0,0,0,0,0,0,0,0,0,0,0,0,0
26,27,32,3,1,895,880,0,0,0,1659173151,0,1659173173,22,0,0,0,0,0,0,0,0,0,0,0,0,0,0
26,28,137,3,1,659,665,0,0,0,1659173173,0,1659173188,15,0,0,0,0,0,0,0,0,0,0,0,0,0,0
26,29,4,3,1,950,950,0,0,0,1659173188,0,1659173198,10,0,0,0,0,0,0,0,0,0,0,0,0,0,0
26,0,189,3,2,420,405,0,470,520,1659173218,1659173280,1659173284,66,4,0,0,0,0,0,0,0,0,0,0,0,0,0
26,1,67,3,2,570,595,0,520,600,1659173284,1659173351,1659173352,68,1,0,0,0,0,0,0,0,0,0,0,0,0,0
26,2,159,3,2,775,810,0,720,760,1659173352,1659173394,1659173396,44,2,0,0,0,0,0,0,0,0,0,0,0,0,0
26,3,46,3,2,480,515,0,470,490,1659173397,1659173427,1659173429,32,2,0,0,0,0,0,0,0,0,0,0,0,0,0
26,4,120,3,2,522,510,0,420,470,1659173429,1659173469,1659173470,41,1,0,0,0,0,0,0,0,0,0,0,0,0,0
26,5,28,3,2,846,865,0,950,1050,1659173470,1659173522,1659173523,53,1,0,0,0,0,0,0,0,0,0,0,0,0,0
26,6,100,3,2,895,870,0,890,930,1659173524,1659173543,1659173544,20,1,0,0,0,0,0,0,0,0,0,0,0,0,0
26,7,65,3,2,450,440,0,450,490,1659173544,1659173589,1659173591,47,2,0,0,0,0,0,0,0,0,0,0,0,0,0
26,8,124,3,2,430,445,0,480,520,1659173591,1659173619,1659173620,29,1,0,0,0,0,0,0,0,0,0,0,0,0,0
26,9,155,3,2,450,460,0,460,490,1659173621,1659173645,1659173647,26,2,0,0,0,0,0,0,0,0,0,0,0,0,0
26,0,110,3,3,758,770,780,0,0,1659173727,1659173789,1659173809,82,20,1,5,2.8205128205128,0,0,0,1659173807,false,-1,0,780,5,0
26,1,167,3,3,580,570,473,0,0,1659173810,1659173885,1659173921,111,36,6,5,22.62156448203,0,1659173826,1659173908,1659173807,true,500,1659173918,500,4,0.27835051546392
26,2,195,3,3,1815,1155,1200,0,0,1659173921,1659173988,1659174003,82,15,1,5,51.25,5,1659173953,1659173908,1659173998,false,500,1659173918,1200,2,0
26,3,146,3,3,1300,1060,1300,0,0,1659174004,1659174073,1659174084,80,11,4,4,0,5,1659174019,1659173908,1659174082,false,500,1659173918,1300,5,0
26,4,144,3,3,329,615,410,0,0,1659174084,1659174135,1659174150,66,15,7,6,19.756097560976,5,1659174095,1659173908,1659174148,false,500,1659173918,410,3,0
26,5,36,3,3,790,815,720,0,0,1659174150,1659174193,1659174228,78,35,5,6,9.7222222222222,5,1659174164,1659174206,1659174148,true,740,1659174221,740,4,0.21052631578947
26,6,176,3,3,390,450,435,0,0,1659174228,1659174278,1659174288,60,10,1,6,10.344827586207,5,1659174235,1659174206,1659174286,false,740,1659174221,435,4,0
26,7,115,3,3,405,385,435,0,0,1659174288,1659174343,1659174353,65,10,6,5,6.8965517241379,2,1659174304,1659174206,1659174351,false,740,1659174221,435,4,0
26,8,63,3,3,1300,1120,1600,0,0,1659174354,1659174407,1659174424,70,17,3,5,18.75,2,1659174364,1659174417,1659174351,true,1350,1659174422,1350,5,0.52083333333333
26,9,34,3,3,457,550,515,0,0,1659174424,1659174465,1659174477,53,12,1,5,11.26213592233,2,1659174432,1659174472,1659174351,true,525,1659174476,525,4,0.28571428571429
26,10,56,3,3,405,630,480,0,0,1659174478,1659174534,1659174563,85,29,7,6,15.625,2,1659174496,1659174472,1659174562,false,525,1659174476,480,3,0
26,11,62,3,3,474,495,425,0,0,1659174564,1659174586,1659174597,33,11,6,5,11.529411764706,2,1659174571,1659174472,1659174596,false,525,1659174476,425,4,0
26,12,84,3,3,1385,945,1150,0,0,1659174597,1659174657,1659174672,75,15,2,5,20.434782608696,5,1659174616,1659174667,1659174596,true,1080,1659174671,1080,3,0.34146341463415
26,13,117,3,3,560,700,770,0,0,1659174673,1659174704,1659174717,44,13,2,5,27.272727272727,5,1659174681,1659174711,1659174596,true,740,1659174715,740,2,0.42857142857143
26,14,104,3,3,670,735,610,0,0,1659174717,1659174752,1659174764,47,12,5,5,9.8360655737705,5,1659174727,1659174760,1659174596,true,650,1659174763,650,5,0.32
26,15,5,3,3,791,685,600,0,0,1659174765,1659174808,1659174826,61,18,4,5,31.833333333333,5,1659174768,1659174819,1659174596,true,620,1659174824,620,3,0.23529411764706
26,16,114,3,3,1340,980,990,0,0,1659174826,1659174864,1659174871,45,7,1,6,35.353535353535,5,1659174834,1659174819,1659174870,false,620,1659174824,990,3,0
26,17,129,3,3,605,775,850,0,0,1659174871,1659174903,1659174913,42,10,1,5,28.823529411765,3,1659174887,1659174819,1659174911,false,620,1659174824,850,2,0
26,18,136,3,3,690,790,790,0,0,1659174914,1659174948,1659174955,41,7,1,6,12.658227848101,3,1659174920,1659174819,1659174955,false,620,1659174824,790,4,0
26,19,113,3,3,750,820,730,0,0,1659174956,1659175000,1659175017,61,17,3,4,2.7397260273973,3,1659174961,1659175009,1659174955,true,780,1659175015,780,4,0.55555555555556
26,20,40,3,3,1950,1030,1400,0,0,1659175017,1659175037,1659175050,33,13,2,6,39.285714285714,3,1659175024,1659175042,1659174955,true,1300,1659175047,1300,2,0.27027027027027
26,21,156,3,3,430,580,430,0,0,1659175050,1659175079,1659175104,54,25,7,5,0,3,1659175055,1659175098,1659174955,true,460,1659175103,460,4,0.2
26,22,60,3,3,870,900,920,0,0,1659175105,1659175131,1659175140,35,9,1,6,5.4347826086957,2,1659175118,1659175098,1659175139,false,460,1659175103,920,4,0
26,23,130,3,3,875,960,970,0,0,1659175140,1659175171,1659175178,38,7,1,5,9.7938144329897,2,1659175146,1659175098,1659175176,false,460,1659175103,970,4,0
26,24,72,3,3,806,835,850,0,0,1659175178,1659175202,1659175221,43,19,1,6,5.1764705882353,2,1659175184,1659175209,1659175207,true,820,1659175218,820,5,2
26,25,29,3,3,1415,1125,1450,0,0,1659175222,1659175254,1659175276,54,22,6,6,2.4137931034483,2,1659175228,1659175269,1659175207,true,1300,1659175273,1300,4,0.46153846153846
26,26,33,3,3,980,840,850,0,0,1659175277,1659175334,1659175341,64,7,1,5,15.294117647059,2,1659175284,1659175269,1659175340,false,1300,1659175273,850,4,0
26,27,197,3,3,635,650,600,0,0,1659175341,1659175378,1659175387,46,9,4,6,5.8333333333333,1,1659175353,1659175269,1659175386,false,1300,1659175273,600,4,0
26,28,187,3,3,1550,1265,1700,0,0,1659175388,1659175413,1659175430,42,17,7,6,8.8235294117647,1,1659175394,1659175420,1659175386,true,1500,1659175429,1500,5,0.45977011494253
26,29,164,3,3,1150,1200,1700,0,0,1659175431,1659175452,1659175468,37,16,7,6,32.352941176471,1,1659175437,1659175420,1659175467,false,1500,1659175429,1700,1,0
32,0,32,3,1,895,880,0,0,0,1659339289,0,1659339313,24,0,0,0,0,0,0,0,0,0,0,0,0,0,0
32,1,152,3,1,515,530,0,0,0,1659339313,0,1659339325,12,0,0,0,0,0,0,0,0,0,0,0,0,0,0
32,2,137,3,1,659,665,0,0,0,1659339326,0,1659339338,12,0,0,0,0,0,0,0,0,0,0,0,0,0,0
32,3,19,3,1,400,405,0,0,0,1659339338,0,1659339351,13,0,0,0,0,0,0,0,0,0,0,0,0,0,0
32,4,192,3,1,950,915,0,0,0,1659339352,0,1659339362,10,0,0,0,0,0,0,0,0,0,0,0,0,0,0
32,5,98,3,1,790,780,0,0,0,1659339362,0,1659339383,21,0,0,0,0,0,0,0,0,0,0,0,0,0,0
32,6,58,3,1,490,480,0,0,0,1659339384,0,1659339398,14,0,0,0,0,0,0,0,0,0,0,0,0,0,0
32,7,44,3,1,750,780,0,0,0,1659339398,0,1659339411,13,0,0,0,0,0,0,0,0,0,0,0,0,0,0
32,8,122,3,1,725,715,0,0,0,1659339411,0,1659339420,9,0,0,0,0,0,0,0,0,0,0,0,0,0,0
32,9,170,3,1,460,440,0,0,0,1659339420,0,1659339433,13,0,0,0,0,0,0,0,0,0,0,0,0,0,0
32,10,157,3,1,585,600,0,0,0,1659339433,0,1659339449,16,0,0,0,0,0,0,0,0,0,0,0,0,0,0
32,11,106,3,1,457,470,0,0,0,1659339449,0,1659339458,9,0,0,0,0,0,0,0,0,0,0,0,0,0,0
32,12,163,3,1,450,450,0,0,0,1659339458,0,1659339484,26,0,0,0,0,0,0,0,0,0,0,0,0,0,0
32,13,10,3,1,700,700,0,0,0,1659339484,0,1659339499,15,0,0,0,0,0,0,0,0,0,0,0,0,0,0
32,14,185,3,1,1200,905,0,0,0,1659339499,0,1659339509,10,0,0,0,0,0,0,0,0,0,0,0,0,0,0
32,15,3,3,1,640,645,0,0,0,1659339509,0,1659339516,7,0,0,0,0,0,0,0,0,0,0,0,0,0,0
32,16,8,3,1,720,730,0,0,0,1659339516,0,1659339526,10,0,0,0,0,0,0,0,0,0,0,0,0,0,0
32,17,41,3,1,817,810,0,0,0,1659339526,0,1659339531,5,0,0,0,0,0,0,0,0,0,0,0,0,0,0
32,18,147,3,1,420,415,0,0,0,1659339531,0,1659339537,6,0,0,0,0,0,0,0,0,0,0,0,0,0,0
32,19,175,3,1,500,490,0,0,0,1659339538,0,1659339544,6,0,0,0,0,0,0,0,0,0,0,0,0,0,0
32,20,64,3,1,930,970,0,0,0,1659339544,0,1659339558,14,0,0,0,0,0,0,0,0,0,0,0,0,0,0
32,21,45,3,1,870,890,0,0,0,1659339558,0,1659339570,12,0,0,0,0,0,0,0,0,0,0,0,0,0,0
32,22,105,3,1,716,745,0,0,0,1659339570,0,1659339583,13,0,0,0,0,0,0,0,0,0,0,0,0,0,0
32,23,181,3,1,789,805,0,0,0,1659339583,0,1659339588,5,0,0,0,0,0,0,0,0,0,0,0,0,0,0
32,24,4,3,1,950,950,0,0,0,1659339588,0,1659339601,13,0,0,0,0,0,0,0,0,0,0,0,0,0,0
32,25,139,3,1,490,490,0,0,0,1659339601,0,1659339609,8,0,0,0,0,0,0,0,0,0,0,0,0,0,0
32,26,119,3,1,750,725,0,0,0,1659339609,0,1659339615,6,0,0,0,0,0,0,0,0,0,0,0,0,0,0
32,27,86,3,1,850,890,0,0,0,1659339615,0,1659339621,6,0,0,0,0,0,0,0,0,0,0,0,0,0,0
32,28,196,3,1,650,665,0,0,0,1659339621,0,1659339630,9,0,0,0,0,0,0,0,0,0,0,0,0,0,0
32,29,75,3,1,994,970,0,0,0,1659339630,0,1659339635,5,0,0,0,0,0,0,0,0,0,0,0,0,0,0
33,0,137,3,1,659,665,0,0,0,1659340129,0,1659340136,7,0,0,0,0,0,0,0,0,0,0,0,0,0,0
33,1,64,3,1,930,970,0,0,0,1659340136,0,1659340142,6,0,0,0,0,0,0,0,0,0,0,0,0,0,0
33,2,185,3,1,1200,905,0,0,0,1659340142,0,1659340148,6,0,0,0,0,0,0,0,0,0,0,0,0,0,0
33,3,170,3,1,460,440,0,0,0,1659340148,0,1659340151,3,0,0,0,0,0,0,0,0,0,0,0,0,0,0
33,4,152,3,1,515,530,0,0,0,1659340151,0,1659340154,3,0,0,0,0,0,0,0,0,0,0,0,0,0,0
33,5,192,3,1,950,915,0,0,0,1659340154,0,1659340155,1,0,0,0,0,0,0,0,0,0,0,0,0,0,0
33,6,196,3,1,650,665,0,0,0,1659340155,0,1659340157,2,0,0,0,0,0,0,0,0,0,0,0,0,0,0
33,7,105,3,1,716,745,0,0,0,1659340157,0,1659340159,2,0,0,0,0,0,0,0,0,0,0,0,0,0,0
33,8,8,3,1,720,730,0,0,0,1659340159,0,1659340160,1,0,0,0,0,0,0,0,0,0,0,0,0,0,0
33,9,10,3,1,700,700,0,0,0,1659340160,0,1659340161,1,0,0,0,0,0,0,0,0,0,0,0,0,0,0
33,10,163,3,1,450,450,0,0,0,1659340161,0,1659340163,2,0,0,0,0,0,0,0,0,0,0,0,0,0,0
33,11,106,3,1,457,470,0,0,0,1659340163,0,1659340163,0,0,0,0,0,0,0,0,0,0,0,0,0,0,0
33,12,147,3,1,420,415,0,0,0,1659340163,0,1659340164,1,0,0,0,0,0,0,0,0,0,0,0,0,0,0
33,13,4,3,1,950,950,0,0,0,1659340164,0,1659340165,1,0,0,0,0,0,0,0,0,0,0,0,0,0,0
33,14,119,3,1,750,725,0,0,0,1659340165,0,1659340166,1,0,0,0,0,0,0,0,0,0,0,0,0,0,0
33,15,181,3,1,789,805,0,0,0,1659340166,0,1659340167,1,0,0,0,0,0,0,0,0,0,0,0,0,0,0
33,16,44,3,1,750,780,0,0,0,1659340167,0,1659340168,1,0,0,0,0,0,0,0,0,0,0,0,0,0,0
33,17,75,3,1,994,970,0,0,0,1659340168,0,1659340169,1,0,0,0,0,0,0,0,0,0,0,0,0,0,0
33,18,45,3,1,870,890,0,0,0,1659340169,0,1659340169,0,0,0,0,0,0,0,0,0,0,0,0,0,0,0
33,19,3,3,1,640,645,0,0,0,1659340170,0,1659340170,0,0,0,0,0,0,0,0,0,0,0,0,0,0,0
33,20,157,3,1,585,600,0,0,0,1659340170,0,1659340171,1,0,0,0,0,0,0,0,0,0,0,0,0,0,0
33,21,58,3,1,490,480,0,0,0,1659340171,0,1659340172,1,0,0,0,0,0,0,0,0,0,0,0,0,0,0
33,22,19,3,1,400,405,0,0,0,1659340172,0,1659340173,1,0,0,0,0,0,0,0,0,0,0,0,0,0,0
33,23,98,3,1,790,780,0,0,0,1659340173,0,1659340174,1,0,0,0,0,0,0,0,0,0,0,0,0,0,0
33,24,86,3,1,850,890,0,0,0,1659340174,0,1659340175,1,0,0,0,0,0,0,0,0,0,0,0,0,0,0
33,25,32,3,1,895,880,0,0,0,1659340175,0,1659340177,2,0,0,0,0,0,0,0,0,0,0,0,0,0,0
33,26,41,3,1,817,810,0,0,0,1659340177,0,1659340178,1,0,0,0,0,0,0,0,0,0,0,0,0,0,0
33,27,139,3,1,490,490,0,0,0,1659340178,0,1659340179,1,0,0,0,0,0,0,0,0,0,0,0,0,0,0
33,28,175,3,1,500,490,0,0,0,1659340179,0,1659340179,0,0,0,0,0,0,0,0,0,0,0,0,0,0,0
33,29,122,3,1,725,715,0,0,0,1659340179,0,1659340180,1,0,0,0,0,0,0,0,0,0,0,0,0,0,0
32,0,189,3,2,420,405,0,430,490,1659340248,1659340322,1659340323,75,1,0,0,0,0,0,0,0,0,0,0,0,0,0
32,1,65,3,2,450,440,0,440,480,1659340323,1659340349,1659340351,28,2,0,0,0,0,0,0,0,0,0,0,0,0,0
32,2,124,3,2,430,445,0,480,520,1659340351,1659340390,1659340397,46,7,0,0,0,0,0,0,0,0,0,0,0,0,0
32,3,28,3,2,846,865,0,850,1000,1659340397,1659340431,1659340435,38,4,0,0,0,0,0,0,0,0,0,0,0,0,0
32,4,46,3,2,480,515,0,430,480,1659340435,1659340457,1659340459,24,2,0,0,0,0,0,0,0,0,0,0,0,0,0
32,5,67,3,2,570,595,0,530,600,1659340459,1659340494,1659340495,36,1,0,0,0,0,0,0,0,0,0,0,0,0,0
32,6,159,3,2,775,810,0,850,1000,1659340495,1659340522,1659340524,29,2,0,0,0,0,0,0,0,0,0,0,0,0,0
32,7,100,3,2,895,870,0,790,950,1659340524,1659340549,1659340552,28,3,0,0,0,0,0,0,0,0,0,0,0,0,0
32,8,155,3,2,450,460,0,420,490,1659340552,1659340591,1659340595,43,4,0,0,0,0,0,0,0,0,0,0,0,0,0
32,9,120,3,2,522,510,0,500,550,1659340596,1659340622,1659340626,30,4,0,0,0,0,0,0,0,0,0,0,0,0,0
32,0,110,3,3,758,770,790,0,0,1659342554,1659342631,1659342668,114,37,1,5,4.0506329113924,0,0,1659342661,0,true,780,1659342666,780,5,0.5
32,1,167,3,3,580,570,650,0,0,1659342668,1659342721,1659342746,78,25,3,3,10.769230769231,0,1659342698,1659342735,0,true,620,1659342741,620,4,0.375
34,0,10,3,1,700,700,0,0,0,1659342756,0,1659342770,14,0,0,0,0,0,0,0,0,0,0,0,0,0,0
34,1,181,3,1,789,805,0,0,0,1659342770,0,1659342779,9,0,0,0,0,0,0,0,0,0,0,0,0,0,0
34,2,106,3,1,457,470,0,0,0,1659342779,0,1659342790,11,0,0,0,0,0,0,0,0,0,0,0,0,0,0
34,3,137,3,1,659,665,0,0,0,1659342790,0,1659342801,11,0,0,0,0,0,0,0,0,0,0,0,0,0,0
34,4,58,3,1,490,480,0,0,0,1659342801,0,1659342809,8,0,0,0,0,0,0,0,0,0,0,0,0,0,0
34,5,98,3,1,790,780,0,0,0,1659342809,0,1659342823,14,0,0,0,0,0,0,0,0,0,0,0,0,0,0
34,6,170,3,1,460,440,0,0,0,1659342824,0,1659342833,9,0,0,0,0,0,0,0,0,0,0,0,0,0,0
34,7,75,3,1,994,970,0,0,0,1659342833,0,1659342841,8,0,0,0,0,0,0,0,0,0,0,0,0,0,0
34,8,122,3,1,725,715,0,0,0,1659342841,0,1659342850,9,0,0,0,0,0,0,0,0,0,0,0,0,0,0
34,9,152,3,1,515,530,0,0,0,1659342850,0,1659342856,6,0,0,0,0,0,0,0,0,0,0,0,0,0,0
34,10,105,3,1,716,745,0,0,0,1659342856,0,1659342864,8,0,0,0,0,0,0,0,0,0,0,0,0,0,0
34,11,163,3,1,450,450,0,0,0,1659342864,0,1659342876,12,0,0,0,0,0,0,0,0,0,0,0,0,0,0
32,2,144,3,3,329,615,410,0,0,1659342747,1659342798,1659342875,128,77,7,3,19.756097560976,4,1659342774,1659342867,0,true,430,1659342874,430,2,0.097560975609756
34,12,175,3,1,500,490,0,0,0,1659342876,0,1659342887,11,0,0,0,0,0,0,0,0,0,0,0,0,0,0
34,13,196,3,1,650,665,0,0,0,1659342887,0,1659342895,8,0,0,0,0,0,0,0,0,0,0,0,0,0,0
34,14,64,3,1,930,970,0,0,0,1659342895,0,1659342903,8,0,0,0,0,0,0,0,0,0,0,0,0,0,0
34,15,86,3,1,850,890,0,0,0,1659342903,0,1659342909,6,0,0,0,0,0,0,0,0,0,0,0,0,0,0
34,16,19,3,1,400,405,0,0,0,1659342909,0,1659342918,9,0,0,0,0,0,0,0,0,0,0,0,0,0,0
34,17,119,3,1,750,725,0,0,0,1659342918,0,1659342926,8,0,0,0,0,0,0,0,0,0,0,0,0,0,0
32,3,104,3,3,670,735,670,0,0,1659342875,1659342921,1659342930,55,9,2,6,0,4,1659342892,1659342867,1659342928,false,430,1659342874,670,5,0
34,18,147,3,1,420,415,0,0,0,1659342926,0,1659342934,8,0,0,0,0,0,0,0,0,0,0,0,0,0,0
34,19,44,3,1,750,780,0,0,0,1659342934,0,1659342941,7,0,0,0,0,0,0,0,0,0,0,0,0,0,0
34,20,41,3,1,817,810,0,0,0,1659342942,0,1659342951,9,0,0,0,0,0,0,0,0,0,0,0,0,0,0
34,21,32,3,1,895,880,0,0,0,1659342951,0,1659342958,7,0,0,0,0,0,0,0,0,0,0,0,0,0,0
34,22,192,3,1,950,915,0,0,0,1659342958,0,1659342964,6,0,0,0,0,0,0,0,0,0,0,0,0,0,0
34,23,8,3,1,720,730,0,0,0,1659342964,0,1659342971,7,0,0,0,0,0,0,0,0,0,0,0,0,0,0
34,24,157,3,1,585,600,0,0,0,1659342971,0,1659342978,7,0,0,0,0,0,0,0,0,0,0,0,0,0,0
36,0,86,3,1,850,890,0,0,0,1659342960,0,1659342984,24,0,0,0,0,0,0,0,0,0,0,0,0,0,0
34,25,185,3,1,1200,905,0,0,0,1659342978,0,1659342989,11,0,0,0,0,0,0,0,0,0,0,0,0,0,0
36,1,152,3,1,515,530,0,0,0,1659342984,0,1659342993,9,0,0,0,0,0,0,0,0,0,0,0,0,0,0
34,26,4,3,1,950,950,0,0,0,1659342989,0,1659342997,8,0,0,0,0,0,0,0,0,0,0,0,0,0,0
34,27,45,3,1,870,890,0,0,0,1659342997,0,1659343002,5,0,0,0,0,0,0,0,0,0,0,0,0,0,0
36,2,8,3,1,720,730,0,0,0,1659342993,0,1659343003,10,0,0,0,0,0,0,0,0,0,0,0,0,0,0
34,28,3,3,1,640,645,0,0,0,1659343002,0,1659343009,7,0,0,0,0,0,0,0,0,0,0,0,0,0,0
34,29,139,3,1,490,490,0,0,0,1659343009,0,1659343014,5,0,0,0,0,0,0,0,0,0,0,0,0,0,0
36,3,181,3,1,789,805,0,0,0,1659343003,0,1659343016,13,0,0,0,0,0,0,0,0,0,0,0,0,0,0
36,4,45,3,1,870,890,0,0,0,1659343016,0,1659343023,7,0,0,0,0,0,0,0,0,0,0,0,0,0,0
36,5,196,3,1,650,665,0,0,0,1659343023,0,1659343031,8,0,0,0,0,0,0,0,0,0,0,0,0,0,0
36,6,41,3,1,817,810,0,0,0,1659343031,0,1659343038,7,0,0,0,0,0,0,0,0,0,0,0,0,0,0
34,0,65,3,2,450,440,0,400,600,1659343020,1659343036,1659343038,18,2,0,0,0,0,0,0,0,0,0,0,0,0,0
36,7,163,3,1,450,450,0,0,0,1659343038,0,1659343044,6,0,0,0,0,0,0,0,0,0,0,0,0,0,0
36,8,106,3,1,457,470,0,0,0,1659343044,0,1659343053,9,0,0,0,0,0,0,0,0,0,0,0,0,0,0
34,1,46,3,2,480,515,0,500,650,1659343038,1659343056,1659343058,20,2,0,0,0,0,0,0,0,0,0,0,0,0,0
36,9,19,3,1,400,405,0,0,0,1659343053,0,1659343061,8,0,0,0,0,0,0,0,0,0,0,0,0,0,0
36,10,58,3,1,490,480,0,0,0,1659343061,0,1659343067,6,0,0,0,0,0,0,0,0,0,0,0,0,0,0
36,11,98,3,1,790,780,0,0,0,1659343067,0,1659343076,9,0,0,0,0,0,0,0,0,0,0,0,0,0,0
34,2,67,3,2,570,595,0,650,800,1659343058,1659343074,1659343076,18,2,0,0,0,0,0,0,0,0,0,0,0,0,0
36,12,175,3,1,500,490,0,0,0,1659343076,0,1659343082,6,0,0,0,0,0,0,0,0,0,0,0,0,0,0
36,13,139,3,1,490,490,0,0,0,1659343082,0,1659343086,4,0,0,0,0,0,0,0,0,0,0,0,0,0,0
36,14,147,3,1,420,415,0,0,0,1659343086,0,1659343090,4,0,0,0,0,0,0,0,0,0,0,0,0,0,0
36,15,3,3,1,640,645,0,0,0,1659343090,0,1659343100,10,0,0,0,0,0,0,0,0,0,0,0,0,0,0
34,3,159,3,2,775,810,0,850,1000,1659343076,1659343101,1659343102,26,1,0,0,0,0,0,0,0,0,0,0,0,0,0
36,16,10,3,1,700,700,0,0,0,1659343100,0,1659343109,9,0,0,0,0,0,0,0,0,0,0,0,0,0,0
34,4,120,3,2,522,510,0,600,750,1659343103,1659343116,1659343118,15,2,0,0,0,0,0,0,0,0,0,0,0,0,0
36,17,122,3,1,725,715,0,0,0,1659343109,0,1659343121,12,0,0,0,0,0,0,0,0,0,0,0,0,0,0
36,18,4,3,1,950,950,0,0,0,1659343121,0,1659343133,12,0,0,0,0,0,0,0,0,0,0,0,0,0,0
34,5,100,3,2,895,870,0,950,1200,1659343118,1659343136,1659343137,19,1,0,0,0,0,0,0,0,0,0,0,0,0,0
36,19,105,3,1,716,745,0,0,0,1659343133,0,1659343142,9,0,0,0,0,0,0,0,0,0,0,0,0,0,0
36,20,119,3,1,750,725,0,0,0,1659343142,0,1659343146,4,0,0,0,0,0,0,0,0,0,0,0,0,0,0
32,4,115,3,3,405,385,450,0,0,1659342930,1659342986,1659343146,216,160,6,6,10,4,1659342948,1659342867,1659343145,false,430,1659342874,450,4,0
36,21,44,3,1,750,780,0,0,0,1659343146,0,1659343151,5,0,0,0,0,0,0,0,0,0,0,0,0,0,0
34,6,124,3,2,430,445,0,600,800,1659343138,1659343151,1659343152,14,1,0,0,0,0,0,0,0,0,0,0,0,0,0
36,22,157,3,1,585,600,0,0,0,1659343151,0,1659343156,5,0,0,0,0,0,0,0,0,0,0,0,0,0,0
36,23,170,3,1,460,440,0,0,0,1659343156,0,1659343164,8,0,0,0,0,0,0,0,0,0,0,0,0,0,0
34,7,189,3,2,420,405,0,450,650,1659343152,1659343166,1659343167,15,1,0,0,0,0,0,0,0,0,0,0,0,0,0
36,24,192,3,1,950,915,0,0,0,1659343164,0,1659343174,10,0,0,0,0,0,0,0,0,0,0,0,0,0,0
36,25,75,3,1,994,970,0,0,0,1659343174,0,1659343183,9,0,0,0,0,0,0,0,0,0,0,0,0,0,0
34,8,28,3,2,846,865,0,800,950,1659343167,1659343186,1659343187,20,1,0,0,0,0,0,0,0,0,0,0,0,0,0
36,26,185,3,1,1200,905,0,0,0,1659343183,0,1659343192,9,0,0,0,0,0,0,0,0,0,0,0,0,0,0
32,5,34,3,3,457,550,460,0,0,1659343147,1659343193,1659343205,58,12,4,6,0.65217391304348,4,1659343155,1659343199,1659343145,true,490,1659343203,490,4,0.33333333333333
34,9,155,3,2,450,460,0,600,700,1659343188,1659343206,1659343207,19,1,0,0,0,0,0,0,0,0,0,0,0,0,0
36,27,137,3,1,659,665,0,0,0,1659343192,0,1659343208,16,0,0,0,0,0,0,0,0,0,0,0,0,0,0
36,28,64,3,1,930,970,0,0,0,1659343208,0,1659343218,10,0,0,0,0,0,0,0,0,0,0,0,0,0,0
36,29,32,3,1,895,880,0,0,0,1659343218,0,1659343225,7,0,0,0,0,0,0,0,0,0,0,0,0,0,0
36,0,65,3,2,450,440,0,450,550,1659343230,1659343244,1659343248,18,4,0,0,0,0,0,0,0,0,0,0,0,0,0
32,6,113,3,3,750,820,1000,0,0,1659343205,1659343229,1659343246,41,17,5,6,25,4,1659343209,1659343240,1659343145,true,980,1659343245,980,2,0.11111111111111
36,1,120,3,2,522,510,0,500,580,1659343248,1659343265,1659343266,18,1,0,0,0,0,0,0,0,0,0,0,0,0,0
36,2,189,3,2,420,405,0,400,480,1659343266,1659343278,1659343279,13,1,0,0,0,0,0,0,0,0,0,0,0,0,0
36,3,124,3,2,430,445,0,540,600,1659343279,1659343291,1659343295,16,4,0,0,0,0,0,0,0,0,0,0,0,0,0
32,7,36,3,3,790,815,790,0,0,1659343246,1659343287,1659343299,53,12,1,6,0,4,1659343258,1659343240,1659343297,false,980,1659343245,790,5,0
36,4,159,3,2,775,810,0,800,980,1659343295,1659343318,1659343321,26,3,0,0,0,0,0,0,0,0,0,0,0,0,0
36,5,46,3,2,480,515,0,550,680,1659343321,1659343334,1659343335,14,1,0,0,0,0,0,0,0,0,0,0,0,0,0
36,6,28,3,2,846,865,0,950,1300,1659343335,1659343349,1659343351,16,2,0,0,0,0,0,0,0,0,0,0,0,0,0
36,7,100,3,2,895,870,0,1000,1200,1659343351,1659343364,1659343365,14,1,0,0,0,0,0,0,0,0,0,0,0,0,0
36,8,155,3,2,450,460,0,450,540,1659343365,1659343375,1659343376,11,1,0,0,0,0,0,0,0,0,0,0,0,0,0
36,9,67,3,2,570,595,0,600,700,1659343376,1659343383,1659343385,9,2,0,0,0,0,0,0,0,0,0,0,0,0,0
32,8,40,3,3,1950,1030,1400,0,0,1659343299,1659343415,1659343435,136,20,4,6,39.285714285714,4,1659343309,1659343424,1659343297,true,1300,1659343434,1300,2,0.27027027027027
36,0,110,3,3,758,770,860,0,0,1659343435,1659343452,1659343466,31,14,4,5,11.860465116279,0,0,1659343461,0,true,820,1659343465,820,4,0.44444444444444
36,1,167,3,3,580,570,570,0,0,1659343466,1659343497,1659343503,37,6,1,6,1.7543859649123,0,1659343476,1659343461,1659343502,false,820,1659343465,570,5,0
36,2,146,3,3,1300,1060,1300,0,0,1659343503,1659343534,1659343544,41,10,3,5,0,6,1659343514,1659343461,1659343542,false,820,1659343465,1300,5,0
36,3,63,3,3,1300,1120,1370,0,0,1659343544,1659343582,1659343608,64,26,3,6,5.1094890510949,6,1659343565,1659343602,1659343542,true,1300,1659343606,1300,5,0.28
32,9,33,3,3,980,840,1300,0,0,1659343435,1659343617,1659343639,204,22,7,6,24.615384615385,4,1659343442,1659343424,1659343637,false,1300,1659343434,1300,2,0
36,4,104,3,3,670,735,730,0,0,1659343608,1659343650,1659343658,50,8,1,6,8.2191780821918,6,1659343615,1659343602,1659343657,false,1300,1659343606,730,4,0
36,5,60,3,3,870,900,790,0,0,1659343658,1659343682,1659343696,38,14,5,5,10.126582278481,6,1659343666,1659343692,1659343657,true,840,1659343695,840,5,0.45454545454545
32,10,63,3,3,1300,1120,890,0,0,1659343639,1659343693,1659343708,69,15,6,4,46.067415730337,4,1659343649,1659343702,1659343637,true,920,1659343706,920,3,0.1304347826087
36,6,176,3,3,390,450,450,0,0,1659343696,1659343711,1659343719,23,8,1,6,13.333333333333,6,1659343699,1659343692,1659343718,false,840,1659343695,450,4,0
36,7,156,3,3,430,580,530,0,0,1659343719,1659343746,1659343752,33,6,2,6,18.867924528302,3,1659343731,1659343692,1659343752,false,840,1659343695,530,3,0
32,11,5,3,3,791,685,810,0,0,1659343708,1659343743,1659343760,52,17,5,5,2.3456790123457,4,1659343721,1659343751,1659343637,true,780,1659343758,780,5,0.24
36,8,113,3,3,750,820,860,0,0,1659343753,1659343783,1659343802,49,19,3,6,12.790697674419,3,1659343758,1659343796,1659343752,true,798,1659343801,798,4,1.55
36,9,164,3,3,1150,1200,1350,0,0,1659343802,1659343817,1659343831,29,14,5,5,14.814814814815,3,1659343805,1659343823,1659343752,true,1050,1659343830,1050,4,2
36,10,72,3,3,806,835,700,0,0,1659343831,1659343853,1659343860,29,7,5,6,15.142857142857,3,1659343837,1659343823,1659343860,false,1050,1659343830,700,4,0
36,11,136,3,3,690,790,890,0,0,1659343860,1659343884,1659343896,36,12,6,5,22.47191011236,3,1659343863,1659343890,1659343860,true,750,1659343895,750,4,1.4
36,12,84,3,3,1385,945,970,0,0,1659343896,1659343915,1659343923,27,8,2,5,42.783505154639,2,1659343904,1659343919,1659343860,true,920,1659343922,920,2,2
36,13,130,3,3,875,960,980,0,0,1659343923,1659343945,1659343951,28,6,1,5,10.714285714286,2,1659343929,1659343919,1659343950,false,920,1659343922,980,4,0
36,14,5,3,3,791,685,640,0,0,1659343951,1659343964,1659343969,18,5,1,5,23.59375,2,1659343953,1659343919,1659343968,false,920,1659343922,640,3,0
36,15,36,3,3,790,815,720,0,0,1659343969,1659344006,1659344018,49,12,5,5,9.7222222222222,2,1659343973,1659343919,1659344017,false,920,1659343922,720,4,0
36,16,115,3,3,405,385,450,0,0,1659344018,1659344059,1659344073,55,14,5,5,10,2,1659344020,1659344068,1659344017,true,400,1659344071,400,5,0.76923076923077
36,17,144,3,3,329,615,340,0,0,1659344073,1659344114,1659344129,56,15,7,6,3.2352941176471,1,1659344080,1659344125,1659344017,true,400,1659344127,400,3,0.21818181818182
32,12,136,3,3,690,790,790,0,0,1659343760,1659344145,1659344153,393,8,1,6,12.658227848101,5,1659343773,1659343751,1659344152,false,780,1659343758,790,4,0
