User,Trial,House,Condition,Phase,RentalPrice,Recommendation,Answer,AnswerMin,AnswerMax,StartTime,SaveTime,EndTime,Duration,"Reaction Time","Subjective Surprise",Confidence,Expectations,Trust,"Trust Save Time","Yes Time","No time",Change,"Second Estimation","Second Estimation Time","Final Estimation",Stars,"Weight of Advice"
5,0,137,3,1,659,665,0,0,0,1659082705,0,1659082748,43,0,0,0,0,0,0,0,0,0,0,0,0,0,0
5,1,58,3,1,490,480,0,0,0,1659082748,0,1659082771,23,0,0,0,0,0,0,0,0,0,0,0,0,0,0
5,2,10,3,1,700,700,0,0,0,1659082772,0,1659082813,41,0,0,0,0,0,0,0,0,0,0,0,0,0,0
5,3,86,3,1,850,890,0,0,0,1659082814,0,1659082853,39,0,0,0,0,0,0,0,0,0,0,0,0,0,0
5,4,8,3,1,720,730,0,0,0,1659082853,0,1659082871,18,0,0,0,0,0,0,0,0,0,0,0,0,0,0
5,5,185,3,1,1200,905,0,0,0,1659082871,0,1659082896,25,0,0,0,0,0,0,0,0,0,0,0,0,0,0
5,6,32,3,1,895,880,0,0,0,1659082896,0,1659082926,30,0,0,0,0,0,0,0,0,0,0,0,0,0,0
5,7,152,3,1,515,530,0,0,0,1659082927,0,1659082950,23,0,0,0,0,0,0,0,0,0,0,0,0,0,0
5,8,75,3,1,994,970,0,0,0,1659082950,0,1659082997,47,0,0,0,0,0,0,0,0,0,0,0,0,0,0
5,9,181,3,1,789,805,0,0,0,1659082997,0,1659083019,22,0,0,0,0,0,0,0,0,0,0,0,0,0,0
5,10,192,3,1,950,915,0,0,0,1659083019,0,1659083044,25,0,0,0,0,0,0,0,0,0,0,0,0,0,0
5,11,147,3,1,420,415,0,0,0,1659083044,0,1659083056,12,0,0,0,0,0,0,0,0,0,0,0,0,0,0
5,12,44,3,1,750,780,0,0,0,1659083057,0,1659083071,14,0,0,0,0,0,0,0,0,0,0,0,0,0,0
5,13,175,3,1,500,490,0,0,0,1659083071,0,1659083079,8,0,0,0,0,0,0,0,0,0,0,0,0,0,0
5,14,98,3,1,790,780,0,0,0,1659083079,0,1659083101,22,0,0,0,0,0,0,0,0,0,0,0,0,0,0
5,15,170,3,1,460,440,0,0,0,1659083101,0,1659083116,15,0,0,0,0,0,0,0,0,0,0,0,0,0,0
5,16,119,3,1,750,725,0,0,0,1659083116,0,1659083152,36,0,0,0,0,0,0,0,0,0,0,0,0,0,0
5,17,45,3,1,870,890,0,0,0,1659083153,0,1659083210,57,0,0,0,0,0,0,0,0,0,0,0,0,0,0
5,18,163,3,1,450,450,0,0,0,1659083210,0,1659083234,24,0,0,0,0,0,0,0,0,0,0,0,0,0,0
5,19,139,3,1,490,490,0,0,0,1659083234,0,1659083252,18,0,0,0,0,0,0,0,0,0,0,0,0,0,0
5,20,122,3,1,725,715,0,0,0,1659083252,0,1659083278,26,0,0,0,0,0,0,0,0,0,0,0,0,0,0
5,21,3,3,1,640,645,0,0,0,1659083278,0,1659083299,21,0,0,0,0,0,0,0,0,0,0,0,0,0,0
5,22,41,3,1,817,810,0,0,0,1659083299,0,1659083317,18,0,0,0,0,0,0,0,0,0,0,0,0,0,0
5,23,4,3,1,950,950,0,0,0,1659083317,0,1659083337,20,0,0,0,0,0,0,0,0,0,0,0,0,0,0
5,24,19,3,1,400,405,0,0,0,1659083337,0,1659083362,25,0,0,0,0,0,0,0,0,0,0,0,0,0,0
5,25,106,3,1,457,470,0,0,0,1659083362,0,1659083385,23,0,0,0,0,0,0,0,0,0,0,0,0,0,0
5,26,64,3,1,930,970,0,0,0,1659083385,0,1659083402,17,0,0,0,0,0,0,0,0,0,0,0,0,0,0
5,27,105,3,1,716,745,0,0,0,1659083402,0,1659083423,21,0,0,0,0,0,0,0,0,0,0,0,0,0,0
5,28,196,3,1,650,665,0,0,0,1659083423,0,1659083442,19,0,0,0,0,0,0,0,0,0,0,0,0,0,0
5,29,157,3,1,585,600,0,0,0,1659083442,0,1659083463,21,0,0,0,0,0,0,0,0,0,0,0,0,0,0
5,0,155,3,2,450,460,0,400,450,1659083479,1659083516,1659083522,43,6,0,0,0,0,0,0,0,0,0,0,0,0,0
5,1,28,3,2,846,865,0,700,780,1659083523,1659083556,1659083557,34,1,0,0,0,0,0,0,0,0,0,0,0,0,0
5,2,67,3,2,570,595,0,500,540,1659083557,1659083586,1659083588,31,2,0,0,0,0,0,0,0,0,0,0,0,0,0
5,3,124,3,2,430,445,0,450,480,1659083589,1659083606,1659083608,19,2,0,0,0,0,0,0,0,0,0,0,0,0,0
5,4,46,3,2,480,515,0,400,420,1659083608,1659083630,1659083632,24,2,0,0,0,0,0,0,0,0,0,0,0,0,0
5,5,120,3,2,522,510,0,420,450,1659083632,1659083653,1659083655,23,2,0,0,0,0,0,0,0,0,0,0,0,0,0
5,6,65,3,2,450,440,0,400,430,1659083655,1659083674,1659083676,21,2,0,0,0,0,0,0,0,0,0,0,0,0,0
5,7,100,3,2,895,870,0,500,560,1659083676,1659083702,1659083703,27,1,0,0,0,0,0,0,0,0,0,0,0,0,0
5,8,189,3,2,420,405,0,400,425,1659083704,1659083723,1659083724,20,1,0,0,0,0,0,0,0,0,0,0,0,0,0
5,9,159,3,2,775,810,0,650,690,1659083725,1659083757,1659083759,34,2,0,0,0,0,0,0,0,0,0,0,0,0,0
5,0,110,3,3,758,770,720,0,0,1659083822,1659083884,1659083921,99,37,3,7,5.2777777777778,0,0,0,1659083919,false,-1,0,720,4,0
5,1,167,3,3,580,570,515,0,0,1659083922,1659083982,1659084001,79,19,3,7,12.621359223301,0,1659083945,0,1659084000,false,-1,0,515,4,0
5,2,176,3,3,390,450,490,0,0,1659084002,1659084067,1659084115,113,48,5,7,20.408163265306,6,1659084024,1659084090,1659084087,true,475,1659084113,475,3,0.375
5,3,113,3,3,750,820,530,0,0,1659084115,1659084168,1659084198,83,30,6,7,41.509433962264,6,1659084132,1659084180,1659084087,true,680,1659084193,680,4,0.51724137931034
5,4,130,3,3,875,960,690,0,0,1659084199,1659084260,1659084296,97,36,6,7,26.811594202899,6,1659084229,1659084283,1659084087,true,855,1659084294,855,5,0.61111111111111
5,5,187,3,3,1550,1265,982,0,0,1659084296,1659084336,1659084359,63,23,5,7,57.841140529532,6,1659084307,1659084344,1659084087,true,1120,1659084357,1120,3,0.48763250883392
5,6,29,3,3,1415,1125,980,0,0,1659084359,1659084391,1659084407,48,16,3,4,44.387755102041,6,1659084363,1659084397,1659084087,true,1000,1659084406,1000,3,0.13793103448276
5,7,136,3,3,690,790,870,0,0,1659084408,1659084451,1659084466,58,15,3,4,20.689655172414,5,1659084428,1659084459,1659084087,true,820,1659084464,820,3,0.625
5,8,129,3,3,605,775,560,0,0,1659084466,1659084495,1659084507,41,12,6,3,8.0357142857143,5,1659084470,1659084501,1659084087,true,620,1659084506,620,5,0.27906976744186
5,9,164,3,3,1150,1200,1100,0,0,1659084508,1659084552,1659084558,50,6,1,7,4.5454545454545,5,1659084525,1659084501,1659084557,false,620,1659084506,1100,4,0
5,10,72,3,3,806,835,830,0,0,1659084559,1659084594,1659084601,42,7,1,7,2.8915662650602,5,1659084565,1659084501,1659084600,false,620,1659084506,830,5,0
5,11,5,3,3,791,685,680,0,0,1659084602,1659084626,1659084634,32,8,1,7,16.323529411765,5,1659084605,1659084501,1659084633,false,620,1659084506,680,4,0
5,12,60,3,3,870,900,750,0,0,1659084634,1659084680,1659084697,63,17,3,7,16,5,1659084647,1659084686,1659084633,true,820,1659084692,820,4,0.46666666666667
5,13,115,3,3,405,385,420,0,0,1659084698,1659084732,1659084745,47,13,2,7,3.5714285714286,5,1659084709,1659084686,1659084739,false,820,1659084692,420,5,0
5,14,36,3,3,790,815,530,0,0,1659084745,1659084775,1659084805,60,30,5,7,49.056603773585,5,1659084754,1659084784,1659084739,true,720,1659084803,720,4,0.66666666666667
5,15,62,3,3,474,495,585,0,0,1659084806,1659084836,1659084848,42,12,3,7,18.974358974359,5,1659084811,1659084784,1659084843,false,720,1659084803,585,3,0
5,16,104,3,3,670,735,600,0,0,1659084848,1659084866,1659084873,25,7,3,7,11.666666666667,5,1659084855,1659084784,1659084871,false,720,1659084803,600,4,0
5,17,33,3,3,980,840,870,0,0,1659084873,1659084908,1659084915,42,7,1,7,12.64367816092,5,1659084892,1659084784,1659084913,false,720,1659084803,870,4,0
5,18,195,3,3,1815,1155,1600,0,0,1659084915,1659084943,1659084951,36,8,5,7,13.4375,5,1659084920,1659084784,1659084949,false,720,1659084803,1600,4,0
5,19,114,3,3,1340,980,900,0,0,1659084951,1659084982,1659084987,36,5,2,7,48.888888888889,5,1659084958,1659084784,1659084985,false,720,1659084803,900,2,0
5,20,117,3,3,560,700,640,0,0,1659084988,1659085011,1659085018,30,7,2,7,12.5,5,1659084992,1659084784,1659085016,false,720,1659084803,640,4,0
5,21,84,3,3,1385,945,980,0,0,1659085018,1659085056,1659085065,47,9,1,7,41.326530612245,5,1659085023,1659084784,1659085063,false,720,1659084803,980,3,0
5,22,146,3,3,1300,1060,1530,0,0,1659085065,1659085109,1659085115,50,6,3,7,15.032679738562,5,1659085083,1659084784,1659085113,false,720,1659084803,1530,4,0
5,23,40,3,3,1950,1030,1100,0,0,1659085115,1659085146,1659085157,42,11,1,7,77.272727272727,5,1659085119,1659084784,1659085155,false,720,1659084803,1100,2,0
5,24,63,3,3,1300,1120,1300,0,0,1659085157,1659085193,1659085199,42,6,2,7,0,5,1659085164,1659084784,1659085197,false,720,1659084803,1300,5,0
5,25,144,3,3,329,615,320,0,0,1659085199,1659085225,1659085245,46,20,6,7,2.8125,5,1659085211,1659085238,1659085197,true,380,1659085244,380,4,0.20338983050847
5,26,156,3,3,430,580,390,0,0,1659085245,1659085269,1659085280,35,11,7,7,10.25641025641,5,1659085256,1659085238,1659085275,false,380,1659085244,390,4,0
5,27,56,3,3,405,630,340,0,0,1659085281,1659085309,1659085316,35,7,6,7,19.117647058824,4,1659085292,1659085238,1659085314,false,380,1659085244,340,4,0
5,28,34,3,3,457,550,490,0,0,1659085316,1659085335,1659085344,28,9,4,7,6.734693877551,4,1659085321,1659085238,1659085340,false,380,1659085244,490,4,0
5,29,197,3,3,635,650,510,0,0,1659085344,1659085381,1659085387,43,6,3,5,24.509803921569,4,1659085351,1659085238,1659085385,false,380,1659085244,510,3,0
