User,Trial,House,Condition,Phase,RentalPrice,Recommendation,Answer,AnswerMin,AnswerMax,StartTime,SaveTime,EndTime,Duration,"Reaction Time","Subjective Surprise",Confidence,Expectations,Trust,"Trust Save Time","Yes Time","No time",Change,"Second Estimation","Second Estimation Time","Final Estimation",Stars,"Weight of Advice"
19,0,75,3,1,994,970,0,0,0,1659103028,0,1659103065,37,0,0,0,0,0,0,0,0,0,0,0,0,0,0
19,1,10,3,1,700,700,0,0,0,1659103065,0,1659103079,14,0,0,0,0,0,0,0,0,0,0,0,0,0,0
19,2,19,3,1,400,405,0,0,0,1659103079,0,1659103090,11,0,0,0,0,0,0,0,0,0,0,0,0,0,0
19,3,170,3,1,460,440,0,0,0,1659103090,0,1659103100,10,0,0,0,0,0,0,0,0,0,0,0,0,0,0
19,4,86,3,1,850,890,0,0,0,1659103100,0,1659103119,19,0,0,0,0,0,0,0,0,0,0,0,0,0,0
19,5,139,3,1,490,490,0,0,0,1659103119,0,1659103128,9,0,0,0,0,0,0,0,0,0,0,0,0,0,0
19,6,122,3,1,725,715,0,0,0,1659103128,0,1659103134,6,0,0,0,0,0,0,0,0,0,0,0,0,0,0
19,7,105,3,1,716,745,0,0,0,1659103134,0,1659103150,16,0,0,0,0,0,0,0,0,0,0,0,0,0,0
19,8,163,3,1,450,450,0,0,0,1659103151,0,1659103163,12,0,0,0,0,0,0,0,0,0,0,0,0,0,0
19,9,147,3,1,420,415,0,0,0,1659103163,0,1659103168,5,0,0,0,0,0,0,0,0,0,0,0,0,0,0
19,10,45,3,1,870,890,0,0,0,1659103168,0,1659103175,7,0,0,0,0,0,0,0,0,0,0,0,0,0,0
19,11,137,3,1,659,665,0,0,0,1659103175,0,1659103183,8,0,0,0,0,0,0,0,0,0,0,0,0,0,0
19,12,32,3,1,895,880,0,0,0,1659103183,0,1659103191,8,0,0,0,0,0,0,0,0,0,0,0,0,0,0
19,13,41,3,1,817,810,0,0,0,1659103191,0,1659103197,6,0,0,0,0,0,0,0,0,0,0,0,0,0,0
19,14,3,3,1,640,645,0,0,0,1659103197,0,1659103206,9,0,0,0,0,0,0,0,0,0,0,0,0,0,0
19,15,106,3,1,457,470,0,0,0,1659103206,0,1659103212,6,0,0,0,0,0,0,0,0,0,0,0,0,0,0
19,16,98,3,1,790,780,0,0,0,1659103212,0,1659103227,15,0,0,0,0,0,0,0,0,0,0,0,0,0,0
19,17,181,3,1,789,805,0,0,0,1659103227,0,1659103234,7,0,0,0,0,0,0,0,0,0,0,0,0,0,0
19,18,192,3,1,950,915,0,0,0,1659103234,0,1659103246,12,0,0,0,0,0,0,0,0,0,0,0,0,0,0
19,19,185,3,1,1200,905,0,0,0,1659103246,0,1659103254,8,0,0,0,0,0,0,0,0,0,0,0,0,0,0
19,20,157,3,1,585,600,0,0,0,1659103254,0,1659103263,9,0,0,0,0,0,0,0,0,0,0,0,0,0,0
19,21,8,3,1,720,730,0,0,0,1659103263,0,1659103272,9,0,0,0,0,0,0,0,0,0,0,0,0,0,0
19,22,175,3,1,500,490,0,0,0,1659103272,0,1659103280,8,0,0,0,0,0,0,0,0,0,0,0,0,0,0
19,23,196,3,1,650,665,0,0,0,1659103280,0,1659103289,9,0,0,0,0,0,0,0,0,0,0,0,0,0,0
19,24,58,3,1,490,480,0,0,0,1659103290,0,1659103303,13,0,0,0,0,0,0,0,0,0,0,0,0,0,0
19,25,64,3,1,930,970,0,0,0,1659103303,0,1659103318,15,0,0,0,0,0,0,0,0,0,0,0,0,0,0
19,26,44,3,1,750,780,0,0,0,1659103318,0,1659103329,11,0,0,0,0,0,0,0,0,0,0,0,0,0,0
19,27,4,3,1,950,950,0,0,0,1659103329,0,1659103336,7,0,0,0,0,0,0,0,0,0,0,0,0,0,0
19,28,119,3,1,750,725,0,0,0,1659103336,0,1659103344,8,0,0,0,0,0,0,0,0,0,0,0,0,0,0
19,29,152,3,1,515,530,0,0,0,1659103344,0,1659103350,6,0,0,0,0,0,0,0,0,0,0,0,0,0,0
19,0,28,3,2,846,865,0,750,900,1659103369,1659103386,1659103388,19,2,0,0,0,0,0,0,0,0,0,0,0,0,0
19,1,124,3,2,430,445,0,400,500,1659103388,1659103400,1659103403,15,3,0,0,0,0,0,0,0,0,0,0,0,0,0
19,2,100,3,2,895,870,0,750,850,1659103403,1659103421,1659103422,19,1,0,0,0,0,0,0,0,0,0,0,0,0,0
19,3,65,3,2,450,440,0,400,500,1659103422,1659103437,1659103438,16,1,0,0,0,0,0,0,0,0,0,0,0,0,0
19,4,46,3,2,480,515,0,400,500,1659103438,1659103447,1659103448,10,1,0,0,0,0,0,0,0,0,0,0,0,0,0
19,5,189,3,2,420,405,0,400,500,1659103449,1659103456,1659103457,8,1,0,0,0,0,0,0,0,0,0,0,0,0,0
19,6,159,3,2,775,810,0,700,800,1659103457,1659103472,1659103473,16,1,0,0,0,0,0,0,0,0,0,0,0,0,0
19,7,155,3,2,450,460,0,400,500,1659103473,1659103482,1659103484,11,2,0,0,0,0,0,0,0,0,0,0,0,0,0
19,8,67,3,2,570,595,0,500,600,1659103484,1659103500,1659103501,17,1,0,0,0,0,0,0,0,0,0,0,0,0,0
19,9,120,3,2,522,510,0,450,550,1659103501,1659103515,1659103516,15,1,0,0,0,0,0,0,0,0,0,0,0,0,0
19,0,110,3,3,758,770,680,0,0,1659103557,1659103584,1659103603,46,19,2,4,11.470588235294,0,0,1659103595,0,true,700,1659103600,700,4,0.22222222222222
19,1,167,3,3,580,570,530,0,0,1659103604,1659103631,1659103639,35,8,1,5,9.4339622641509,0,1659103609,1659103595,1659103638,false,700,1659103600,530,4,0
19,2,195,3,3,1815,1155,1200,0,0,1659103639,1659103663,1659103675,36,12,1,6,51.25,6,1659103651,1659103595,1659103672,false,700,1659103600,1200,2,0
19,3,33,3,3,980,840,850,0,0,1659103676,1659103719,1659103725,49,6,1,5,15.294117647059,6,1659103689,1659103595,1659103724,false,700,1659103600,850,4,0
19,4,130,3,3,875,960,920,0,0,1659103725,1659103751,1659103766,41,15,1,5,4.8913043478261,6,1659103732,1659103761,1659103765,false,930,1659103600,920,4,0
19,5,34,3,3,457,550,500,0,0,1659103767,1659103810,1659103821,54,11,3,5,8.6,6,1659103798,1659103815,1659103765,true,520,1659103819,520,4,0.4
19,6,187,3,3,1550,1265,900,0,0,1659103821,1659103840,1659103855,34,15,6,5,72.222222222222,6,1659103829,1659103847,1659103765,true,1100,1659103854,1100,3,0.54794520547945
19,7,62,3,3,474,495,500,0,0,1659103855,1659103879,1659103883,28,4,1,5,5.2,4,1659103865,1659103847,1659103882,false,1100,1659103854,500,4,0
19,8,129,3,3,605,775,750,0,0,1659103884,1659103912,1659103920,36,8,1,4,19.333333333333,4,1659103888,1659103847,1659103919,false,1100,1659103854,750,3,0
19,9,72,3,3,806,835,700,0,0,1659103920,1659103946,1659103964,44,18,5,5,15.142857142857,4,1659103924,1659103958,1659103919,true,800,1659103961,800,5,0.74074074074074
19,10,60,3,3,870,900,780,0,0,1659103964,1659103983,1659103996,32,13,5,6,11.538461538462,4,1659103970,1659103988,1659103919,true,860,1659103994,860,5,0.66666666666667
19,11,29,3,3,1415,1125,1400,0,0,1659103996,1659104019,1659104033,37,14,5,5,1.0714285714286,4,1659104003,1659104028,1659103919,true,1350,1659104032,1350,4,0.18181818181818
19,12,5,3,3,791,685,600,0,0,1659104033,1659104068,1659104077,44,9,2,4,31.833333333333,5,1659104042,1659104073,1659103919,true,650,1659104076,650,4,0.58823529411765
19,13,36,3,3,790,815,700,0,0,1659104078,1659104109,1659104120,42,11,5,5,12.857142857143,5,1659104081,1659104114,1659103919,true,750,1659104117,750,4,0.43478260869565
19,14,40,3,3,1950,1030,1200,0,0,1659104120,1659104137,1659104146,26,9,5,5,62.5,5,1659104126,1659104114,1659104143,false,750,1659104117,1200,2,0
19,15,197,3,3,635,650,650,0,0,1659104146,1659104172,1659104177,31,5,1,5,2.3076923076923,5,1659104152,1659104114,1659104176,false,750,1659104117,650,5,0
19,16,56,3,3,405,630,520,0,0,1659104177,1659104204,1659104213,36,9,6,6,22.115384615385,5,1659104179,1659104208,1659104176,true,580,1659104212,580,2,0.54545454545455
19,17,146,3,3,1300,1060,940,0,0,1659104214,1659104237,1659104249,35,12,2,5,38.297872340426,5,1659104219,1659104241,1659104176,true,1000,1659104244,1000,3,0.5
19,18,136,3,3,690,790,800,0,0,1659104249,1659104268,1659104274,25,6,1,4,13.75,5,1659104256,1659104241,1659104273,false,1000,1659104244,800,4,0
19,19,63,3,3,1300,1120,850,0,0,1659104275,1659104292,1659104307,32,15,7,5,52.941176470588,5,1659104279,1659104301,1659104273,true,950,1659104306,950,3,0.37037037037037
19,20,104,3,3,670,735,750,0,0,1659104307,1659104324,1659104334,27,10,1,4,10.666666666667,5,1659104311,1659104301,1659104333,false,950,1659104306,750,4,0
19,21,117,3,3,560,700,800,0,0,1659104334,1659104360,1659104366,32,6,5,4,30,5,1659104336,1659104301,1659104365,false,950,1659104306,800,2,0
19,22,113,3,3,750,820,900,0,0,1659104366,1659104388,1659104396,30,8,4,5,16.666666666667,5,1659104374,1659104301,1659104395,false,950,1659104306,900,3,0
19,23,84,3,3,1385,945,950,0,0,1659104396,1659104410,1659104414,18,4,1,6,45.789473684211,5,1659104400,1659104301,1659104414,false,950,1659104306,950,2,0
19,24,115,3,3,405,385,500,0,0,1659104415,1659104437,1659104448,33,11,6,5,19,5,1659104418,1659104441,1659104414,true,475,1659104446,475,4,0.21739130434783
19,25,164,3,3,1150,1200,1200,0,0,1659104448,1659104465,1659104472,24,7,1,6,4.1666666666667,5,1659104452,1659104441,1659104469,false,475,1659104446,1200,4,0
19,26,176,3,3,390,450,500,0,0,1659104472,1659104512,1659104518,46,6,2,5,22,5,1659104479,1659104441,1659104517,false,475,1659104446,500,3,0
19,27,156,3,3,430,580,475,0,0,1659104518,1659104539,1659104544,26,5,6,6,9.4736842105263,5,1659104527,1659104441,1659104543,false,475,1659104446,475,4,0
19,28,114,3,3,1340,980,980,0,0,1659104545,1659104559,1659104565,20,6,1,5,36.734693877551,5,1659104549,1659104441,1659104564,false,475,1659104446,980,3,0
19,29,144,3,3,329,615,435,0,0,1659104565,1659104583,1659104595,30,12,7,5,24.367816091954,5,1659104568,1659104589,1659104564,true,450,1659104592,450,2,0.083333333333333
