User,Trial,House,Condition,Phase,RentalPrice,Recommendation,Answer,AnswerMin,AnswerMax,StartTime,SaveTime,EndTime,Duration,"Reaction Time","Subjective Surprise",Confidence,Expectations,Trust,"Trust Save Time","Yes Time","No time",Change,"Second Estimation","Second Estimation Time","Final Estimation",Stars,"Weight of Advice"
39,0,137,3,1,659,665,0,0,0,1659344709,0,1659344725,16,0,0,0,0,0,0,0,0,0,0,0,0,0,0
39,1,157,3,1,585,600,0,0,0,1659344725,0,1659344741,16,0,0,0,0,0,0,0,0,0,0,0,0,0,0
39,2,185,3,1,1200,905,0,0,0,1659344744,0,1659344761,17,0,0,0,0,0,0,0,0,0,0,0,0,0,0
39,3,8,3,1,720,730,0,0,0,1659344762,0,1659344785,23,0,0,0,0,0,0,0,0,0,0,0,0,0,0
39,4,19,3,1,400,405,0,0,0,1659344785,0,1659344807,22,0,0,0,0,0,0,0,0,0,0,0,0,0,0
39,5,152,3,1,515,530,0,0,0,1659344807,0,1659344820,13,0,0,0,0,0,0,0,0,0,0,0,0,0,0
39,6,181,3,1,789,805,0,0,0,1659344820,0,1659344833,13,0,0,0,0,0,0,0,0,0,0,0,0,0,0
39,7,10,3,1,700,700,0,0,0,1659344833,0,1659344844,11,0,0,0,0,0,0,0,0,0,0,0,0,0,0
39,8,45,3,1,870,890,0,0,0,1659344845,0,1659344866,21,0,0,0,0,0,0,0,0,0,0,0,0,0,0
39,9,58,3,1,490,480,0,0,0,1659344866,0,1659344874,8,0,0,0,0,0,0,0,0,0,0,0,0,0,0
39,10,122,3,1,725,715,0,0,0,1659344875,0,1659344887,12,0,0,0,0,0,0,0,0,0,0,0,0,0,0
39,11,41,3,1,817,810,0,0,0,1659344887,0,1659344899,12,0,0,0,0,0,0,0,0,0,0,0,0,0,0
39,12,139,3,1,490,490,0,0,0,1659344899,0,1659344916,17,0,0,0,0,0,0,0,0,0,0,0,0,0,0
39,13,4,3,1,950,950,0,0,0,1659344917,0,1659344940,23,0,0,0,0,0,0,0,0,0,0,0,0,0,0
39,14,98,3,1,790,780,0,0,0,1659344940,0,1659344948,8,0,0,0,0,0,0,0,0,0,0,0,0,0,0
39,15,170,3,1,460,440,0,0,0,1659344950,0,1659344965,15,0,0,0,0,0,0,0,0,0,0,0,0,0,0
39,16,32,3,1,895,880,0,0,0,1659344965,0,1659344997,32,0,0,0,0,0,0,0,0,0,0,0,0,0,0
39,17,64,3,1,930,970,0,0,0,1659344997,0,1659345020,23,0,0,0,0,0,0,0,0,0,0,0,0,0,0
39,18,105,3,1,716,745,0,0,0,1659345020,0,1659345034,14,0,0,0,0,0,0,0,0,0,0,0,0,0,0
39,19,86,3,1,850,890,0,0,0,1659345034,0,1659345042,8,0,0,0,0,0,0,0,0,0,0,0,0,0,0
39,20,3,3,1,640,645,0,0,0,1659345042,0,1659345052,10,0,0,0,0,0,0,0,0,0,0,0,0,0,0
39,21,196,3,1,650,665,0,0,0,1659345055,0,1659345069,14,0,0,0,0,0,0,0,0,0,0,0,0,0,0
39,22,75,3,1,994,970,0,0,0,1659345069,0,1659345098,29,0,0,0,0,0,0,0,0,0,0,0,0,0,0
39,23,44,3,1,750,780,0,0,0,1659345099,0,1659345108,9,0,0,0,0,0,0,0,0,0,0,0,0,0,0
39,24,192,3,1,950,915,0,0,0,1659345108,0,1659345116,8,0,0,0,0,0,0,0,0,0,0,0,0,0,0
39,25,147,3,1,420,415,0,0,0,1659345117,0,1659345123,6,0,0,0,0,0,0,0,0,0,0,0,0,0,0
39,26,163,3,1,450,450,0,0,0,1659345125,0,1659345131,6,0,0,0,0,0,0,0,0,0,0,0,0,0,0
39,27,175,3,1,500,490,0,0,0,1659345131,0,1659345138,7,0,0,0,0,0,0,0,0,0,0,0,0,0,0
39,28,119,3,1,750,725,0,0,0,1659345139,0,1659345143,4,0,0,0,0,0,0,0,0,0,0,0,0,0,0
39,29,106,3,1,457,470,0,0,0,1659345145,0,1659345148,3,0,0,0,0,0,0,0,0,0,0,0,0,0,0
39,0,189,3,2,420,405,0,400,500,1659345157,1659345171,1659345173,16,2,0,0,0,0,0,0,0,0,0,0,0,0,0
39,1,46,3,2,480,515,0,400,450,1659345174,1659345203,1659345205,31,2,0,0,0,0,0,0,0,0,0,0,0,0,0
39,2,159,3,2,775,810,0,700,800,1659345206,1659345217,1659345219,13,2,0,0,0,0,0,0,0,0,0,0,0,0,0
39,3,124,3,2,430,445,0,500,550,1659345220,1659345233,1659345235,15,2,0,0,0,0,0,0,0,0,0,0,0,0,0
39,4,120,3,2,522,510,0,450,550,1659345236,1659345249,1659345251,15,2,0,0,0,0,0,0,0,0,0,0,0,0,0
39,5,155,3,2,450,460,0,400,500,1659345251,1659345262,1659345264,13,2,0,0,0,0,0,0,0,0,0,0,0,0,0
39,6,100,3,2,895,870,0,800,900,1659345264,1659345277,1659345279,15,2,0,0,0,0,0,0,0,0,0,0,0,0,0
39,7,65,3,2,450,440,0,400,500,1659345280,1659345294,1659345295,15,1,0,0,0,0,0,0,0,0,0,0,0,0,0
39,8,28,3,2,846,865,0,850,950,1659345296,1659345313,1659345314,18,1,0,0,0,0,0,0,0,0,0,0,0,0,0
39,9,67,3,2,570,595,0,550,650,1659345316,1659345345,1659345346,30,1,0,0,0,0,0,0,0,0,0,0,0,0,0
39,0,110,3,3,758,770,700,0,0,1659345412,1659345424,1659345441,29,17,2,5,8.2857142857143,0,0,1659345433,0,true,750,1659345438,750,5,0.71428571428571
39,1,167,3,3,580,570,530,0,0,1659345442,1659345566,1659345606,164,40,2,6,9.4339622641509,0,1659345449,1659345600,0,true,540,1659345603,540,4,0.25
39,2,113,3,3,750,820,800,0,0,1659345606,1659345631,1659345640,34,9,2,5,6.25,5,1659345616,1659345600,1659345638,false,540,1659345603,800,4,0
39,3,33,3,3,980,840,850,0,0,1659345640,1659345662,1659345669,29,7,1,6,15.294117647059,5,1659345646,1659345600,1659345668,false,540,1659345603,850,4,0
39,4,34,3,3,457,550,490,0,0,1659345670,1659345703,1659345716,46,13,4,5,6.734693877551,5,1659345683,1659345709,1659345668,true,520,1659345714,520,4,0.5
39,5,117,3,3,560,700,750,0,0,1659345716,1659345747,1659345754,38,7,3,5,25.333333333333,5,1659345724,1659345709,1659345753,false,520,1659345714,750,2,0
39,6,40,3,3,1950,1030,1100,0,0,1659345754,1659345779,1659345786,32,7,2,6,77.272727272727,5,1659345763,1659345709,1659345785,false,520,1659345714,1100,2,0
39,7,195,3,3,1815,1155,1800,0,0,1659345786,1659345825,1659345837,51,12,5,5,0.83333333333333,3,1659345803,1659345831,1659345785,true,1500,1659345835,1500,4,0.46511627906977
39,8,29,3,3,1415,1125,1800,0,0,1659345837,1659345851,1659345873,36,22,5,6,21.388888888889,3,1659345841,1659345868,1659345785,true,1500,1659345872,1500,4,0.44444444444444
39,9,146,3,3,1300,1060,1800,0,0,1659345873,1659346015,1659346022,149,7,7,6,27.777777777778,3,1659345882,1659345868,1659346021,false,1500,1659345872,1800,2,0
39,10,5,3,3,791,685,850,0,0,1659346023,1659346050,1659346068,45,18,6,6,6.9411764705882,3,1659346027,1659346062,1659346021,true,750,1659346066,750,4,0.60606060606061
39,11,63,3,3,1300,1120,1300,0,0,1659346069,1659346091,1659346099,30,8,4,5,0,3,1659346080,1659346062,1659346098,false,750,1659346066,1300,5,0
39,12,114,3,3,1340,980,1300,0,0,1659346099,1659346124,1659346134,35,10,7,6,3.0769230769231,3,1659346112,1659346062,1659346133,false,750,1659346066,1300,5,0
39,13,60,3,3,870,900,1100,0,0,1659346135,1659346158,1659346170,35,12,4,6,20.909090909091,3,1659346139,1659346062,1659346163,false,750,1659346066,1100,3,0
39,14,62,3,3,474,495,600,0,0,1659346171,1659346217,1659346231,60,14,6,6,21,3,1659346181,1659346228,1659346230,false,750,1659346066,600,3,0
39,15,136,3,3,690,790,900,0,0,1659346232,1659346292,1659346303,71,11,4,5,23.333333333333,3,1659346252,1659346300,1659346302,false,750,1659346066,900,2,0
39,16,197,3,3,635,650,800,0,0,1659346303,1659346333,1659346344,41,11,2,4,20.625,3,1659346316,1659346338,1659346302,true,700,1659346343,700,4,0.66666666666667
39,17,56,3,3,405,630,480,0,0,1659346344,1659346390,1659346408,64,18,6,5,15.625,3,1659346354,1659346401,1659346302,true,520,1659346406,520,3,0.26666666666667
39,18,176,3,3,390,450,500,0,0,1659346409,1659346454,1659346480,71,26,2,5,22,3,1659346414,1659346401,1659346478,false,520,1659346406,500,3,0
39,19,130,3,3,875,960,1300,0,0,1659346480,1659346506,1659346520,40,14,2,5,32.692307692308,3,1659346484,1659346514,1659346478,true,1200,1659346519,1200,2,0.29411764705882
39,20,115,3,3,405,385,450,0,0,1659346522,1659346547,1659346560,38,13,1,6,10,3,1659346530,1659346554,1659346478,true,390,1659346558,390,5,0.92307692307692
39,21,72,3,3,806,835,900,0,0,1659346560,1659346591,1659346600,40,9,2,6,10.444444444444,3,1659346570,1659346554,1659346598,false,390,1659346558,900,4,0
39,22,129,3,3,605,775,850,0,0,1659346600,1659346675,1659346691,91,16,2,5,28.823529411765,4,1659346608,1659346680,1659346598,true,820,1659346684,820,2,0.4
39,23,164,3,3,1150,1200,1900,0,0,1659346692,1659346714,1659346727,35,13,6,6,39.473684210526,4,1659346695,1659346680,1659346725,false,820,1659346684,1900,1,0
39,24,36,3,3,790,815,900,0,0,1659346727,1659346777,1659346790,63,13,2,4,12.222222222222,4,1659346738,1659346680,1659346789,false,820,1659346684,900,4,0
39,25,84,3,3,1385,945,1000,0,0,1659346793,1659346816,1659346823,30,7,2,5,38.5,4,1659346801,1659346680,1659346822,false,820,1659346684,1000,3,0
39,26,144,3,3,329,615,400,0,0,1659346825,1659346851,1659346867,42,16,4,5,17.75,4,1659346834,1659346862,1659346822,true,450,1659346866,450,2,0.23255813953488
39,27,187,3,3,1550,1265,1400,0,0,1659346869,1659346909,1659346914,45,5,2,4,10.714285714286,2,1659346887,1659346862,1659346913,false,450,1659346866,1400,4,0
39,28,104,3,3,670,735,900,0,0,1659346916,1659346959,1659346966,50,7,4,5,25.555555555556,2,1659346921,1659346862,1659346965,false,450,1659346866,900,2,0
39,29,156,3,3,430,580,600,0,0,1659346967,1659346982,1659346991,24,9,1,5,28.333333333333,2,1659346970,1659346862,1659346989,false,450,1659346866,600,2,0
